block_c  block_dur condition    countdown                                                  datetime  endtime list multichar_response project  response  response_time session_number  start_end  starttime subject_id task task_vers  trial
   None        NaN      None          NaN Wed Sep 18 2024 18:04:18 GMT-0500 (Central Daylight Time)      NaN None               None       I     space            835              1        NaN        NaN       8007   WL         C    NaN
   prac        NaN         0          NaN Wed Sep 18 2024 18:04:18 GMT-0500 (Central Daylight Time)      NaN   NA                  d       I         d          13967              1        NaN        NaN       8007   WL         C    1.0
   prac        NaN         0          NaN Wed Sep 18 2024 18:04:18 GMT-0500 (Central Daylight Time)      NaN   NA                 db       I         b            485              1        NaN        NaN       8007   WL         C    1.0
   prac        NaN         0          NaN Wed Sep 18 2024 18:04:18 GMT-0500 (Central Daylight Time)      NaN   NA                dbo       I         o            131              1        NaN        NaN       8007   WL         C    1.0
   prac        NaN         0          NaN Wed Sep 18 2024 18:04:18 GMT-0500 (Central Daylight Time)      NaN   NA               dboo       I         o            149              1        NaN        NaN       8007   WL         C    1.0
   prac        NaN         0          NaN Wed Sep 18 2024 18:04:18 GMT-0500 (Central Daylight Time)      NaN   NA              dboos       I         s             88              1        NaN        NaN       8007   WL         C    1.0
   prac        NaN         0          NaN Wed Sep 18 2024 18:04:18 GMT-0500 (Central Daylight Time)      NaN   NA             dboost       I         t            131              1        NaN        NaN       8007   WL         C    1.0
   prac        NaN         0          NaN Wed Sep 18 2024 18:04:18 GMT-0500 (Central Daylight Time)      NaN   NA              dboos       I backspace            862              1        NaN        NaN       8007   WL         C    1.0
   prac        NaN         0          NaN Wed Sep 18 2024 18:04:18 GMT-0500 (Central Daylight Time)      NaN   NA               dboo       I backspace            236              1        NaN        NaN       8007   WL         C    1.0
   prac        NaN         0          NaN Wed Sep 18 2024 18:04:18 GMT-0500 (Central Daylight Time)      NaN   NA                dbo       I backspace            386              1        NaN        NaN       8007   WL         C    1.0
   prac        NaN         0          NaN Wed Sep 18 2024 18:04:18 GMT-0500 (Central Daylight Time)      NaN   NA                 db       I backspace            170              1        NaN        NaN       8007   WL         C    1.0
   prac        NaN         0          NaN Wed Sep 18 2024 18:04:18 GMT-0500 (Central Daylight Time)      NaN   NA                  d       I backspace            410              1        NaN        NaN       8007   WL         C    1.0
   prac        NaN         0          NaN Wed Sep 18 2024 18:04:18 GMT-0500 (Central Daylight Time)      NaN   NA                          I backspace            241              1        NaN        NaN       8007   WL         C    1.0
   prac        NaN         0          NaN Wed Sep 18 2024 18:04:18 GMT-0500 (Central Daylight Time)      NaN   NA                  b       I         b            871              1        NaN        NaN       8007   WL         C    1.0
   prac        NaN         0          NaN Wed Sep 18 2024 18:04:18 GMT-0500 (Central Daylight Time)      NaN   NA                 bo       I         o            157              1        NaN        NaN       8007   WL         C    1.0
   prac        NaN         0          NaN Wed Sep 18 2024 18:04:18 GMT-0500 (Central Daylight Time)      NaN   NA                boo       I         o            173              1        NaN        NaN       8007   WL         C    1.0
   prac        NaN         0          NaN Wed Sep 18 2024 18:04:18 GMT-0500 (Central Daylight Time)      NaN   NA               boos       I         s            159              1        NaN        NaN       8007   WL         C    1.0
   prac        NaN         0          NaN Wed Sep 18 2024 18:04:18 GMT-0500 (Central Daylight Time)      NaN   NA              boost       I         t            128              1        NaN        NaN       8007   WL         C    1.0
   prac        NaN         0          NaN Wed Sep 18 2024 18:04:18 GMT-0500 (Central Daylight Time)      NaN   NA         boostenter       I     enter           3092              1        NaN        NaN       8007   WL         C    1.0
      1      1.383     learn 58617.000103 Wed Sep 18 2024 18:04:18 GMT-0500 (Central Daylight Time) 156832.1    A                  t       I         t           1364              1     1380.8   155451.3       8007   WL         C    1.0
      1      1.699     learn 58301.000118 Wed Sep 18 2024 18:04:18 GMT-0500 (Central Daylight Time) 157148.4    A                 to       I         o            309              1     1697.1   155451.3       8007   WL         C    1.0
      1      1.983     learn 58016.999960 Wed Sep 18 2024 18:04:18 GMT-0500 (Central Daylight Time) 157431.7    A                tow       I         w            267              1     1980.4   155451.3       8007   WL         C    1.0
      1      2.066     learn 57934.000015 Wed Sep 18 2024 18:04:18 GMT-0500 (Central Daylight Time) 157514.8    A               towe       I         e             70              1     2063.5   155451.3       8007   WL         C    1.0
      1      2.233     learn 57766.999960 Wed Sep 18 2024 18:04:18 GMT-0500 (Central Daylight Time) 157681.7    A              tower       I         r            156              1     2230.4   155451.3       8007   WL         C    1.0
      1     10.847     learn 49153.000116 Wed Sep 18 2024 18:04:18 GMT-0500 (Central Daylight Time) 166295.6    A         towerenter       I     enter           8605              1    10844.3   155451.3       8007   WL         C    1.0
      1     11.947     learn 48052.999973 Wed Sep 18 2024 18:04:18 GMT-0500 (Central Daylight Time) 167395.7    A                  w       I         w           1085              1     1099.3   166296.4       8007   WL         C    2.0
      1     12.063     learn 47937.000036 Wed Sep 18 2024 18:04:18 GMT-0500 (Central Daylight Time) 167512.0    A                 wh       I         h            107              1     1215.6   166296.4       8007   WL         C    2.0
      1     12.296     learn 47703.999996 Wed Sep 18 2024 18:04:18 GMT-0500 (Central Daylight Time) 167745.2    A                whe       I         e            214              1     1448.8   166296.4       8007   WL         C    2.0
      1     12.779     learn 47220.999956 Wed Sep 18 2024 18:04:18 GMT-0500 (Central Daylight Time) 168228.2    A               whea       I         a            477              1     1931.8   166296.4       8007   WL         C    2.0
      1     12.896     learn 47104.000092 Wed Sep 18 2024 18:04:18 GMT-0500 (Central Daylight Time) 168345.0    A              wheat       I         t            106              1     2048.6   166296.4       8007   WL         C    2.0
      1     13.596     learn 46404.000044 Wed Sep 18 2024 18:04:18 GMT-0500 (Central Daylight Time) 169044.8    A         wheatenter       I     enter            686              1     2748.4   166296.4       8007   WL         C    2.0
      1     14.046     learn 45953.999996 Wed Sep 18 2024 18:04:18 GMT-0500 (Central Daylight Time) 169494.6    A                  c       I         c            433              1      449.2   169045.4       8007   WL         C    3.0
      1     14.146     learn 45854.000092 Wed Sep 18 2024 18:04:18 GMT-0500 (Central Daylight Time) 169594.7    A                 co       I         o             88              1      549.3   169045.4       8007   WL         C    3.0
      1     14.279     learn 45720.999956 Wed Sep 18 2024 18:04:18 GMT-0500 (Central Daylight Time) 169728.1    A                cor       I         r            124              1      682.7   169045.4       8007   WL         C    3.0
      1     14.479     learn 45520.999908 Wed Sep 18 2024 18:04:18 GMT-0500 (Central Daylight Time) 169927.8    A               corn       I         n            190              1      882.4   169045.4       8007   WL         C    3.0
      1     14.762     learn 45237.999916 Wed Sep 18 2024 18:04:18 GMT-0500 (Central Daylight Time) 170211.0    A          cornenter       I     enter            262              1     1165.6   169045.4       8007   WL         C    3.0
      1     15.429     learn 44571.000099 Wed Sep 18 2024 18:04:18 GMT-0500 (Central Daylight Time) 170877.7    A                  c       I         c            660              1      666.0   170211.7       8007   WL         C    4.0
      1     15.562     learn 44437.999964 Wed Sep 18 2024 18:04:18 GMT-0500 (Central Daylight Time) 171010.9    A                 ca       I         a            111              1      799.2   170211.7       8007   WL         C    4.0
      1     15.679     learn 44321.000099 Wed Sep 18 2024 18:04:18 GMT-0500 (Central Daylight Time) 171127.5    A                cat       I         t            108              1      915.8   170211.7       8007   WL         C    4.0
      1     15.912     learn 44088.000059 Wed Sep 18 2024 18:04:18 GMT-0500 (Central Daylight Time) 171360.7    A               catt       I         t            215              1     1149.0   170211.7       8007   WL         C    4.0
      1     16.030     learn 43970.000029 Wed Sep 18 2024 18:04:18 GMT-0500 (Central Daylight Time) 171478.5    A              cattl       I         l            110              1     1266.8   170211.7       8007   WL         C    4.0
      1     16.213     learn 43786.999941 Wed Sep 18 2024 18:04:18 GMT-0500 (Central Daylight Time) 171661.8    A             cattle       I         e            176              1     1450.1   170211.7       8007   WL         C    4.0
      1     16.412     learn 43588.000059 Wed Sep 18 2024 18:04:18 GMT-0500 (Central Daylight Time) 171860.4    A        cattleenter       I     enter            192              1     1648.7   170211.7       8007   WL         C    4.0
      1     17.245     learn 42755.000114 Wed Sep 18 2024 18:04:18 GMT-0500 (Central Daylight Time) 172693.6    A                  q       I         q            819              1      832.9   171860.7       8007   WL         C    5.0
      1     17.345     learn 42654.999971 Wed Sep 18 2024 18:04:18 GMT-0500 (Central Daylight Time) 172793.6    A                 qu       I         u             87              1      932.9   171860.7       8007   WL         C    5.0
      1     17.511     learn 42489.000082 Wed Sep 18 2024 18:04:18 GMT-0500 (Central Daylight Time) 172960.2    A                que       I         e            149              1     1099.5   171860.7       8007   WL         C    5.0
      1     18.128     learn 41871.999979 Wed Sep 18 2024 18:04:18 GMT-0500 (Central Daylight Time) 173576.8    A               quee       I         e            598              1     1716.1   171860.7       8007   WL         C    5.0
      1     18.378     learn 41621.999979 Wed Sep 18 2024 18:04:18 GMT-0500 (Central Daylight Time) 173826.8    A              queen       I         n            239              1     1966.1   171860.7       8007   WL         C    5.0
      1     19.294     learn 40706.000090 Wed Sep 18 2024 18:04:18 GMT-0500 (Central Daylight Time) 174743.0    A         queenenter       I     enter            909              1     2882.3   171860.7       8007   WL         C    5.0
      1     20.444     learn 39555.999994 Wed Sep 18 2024 18:04:18 GMT-0500 (Central Daylight Time) 175892.4    A                  c       I         c           1143              1     1148.9   174743.5       8007   WL         C    6.0
      1     20.610     learn 39390.000105 Wed Sep 18 2024 18:04:18 GMT-0500 (Central Daylight Time) 176059.3    A                 ca       I         a            154              1     1315.8   174743.5       8007   WL         C    6.0
      1     21.227     learn 38773.000002 Wed Sep 18 2024 18:04:18 GMT-0500 (Central Daylight Time) 176676.0    A                cat       I         t            612              1     1932.5   174743.5       8007   WL         C    6.0
      1     21.428     learn 38572.000027 Wed Sep 18 2024 18:04:18 GMT-0500 (Central Daylight Time) 176876.9    A               catt       I         t            186              1     2133.4   174743.5       8007   WL         C    6.0
      1     21.577     learn 38423.000097 Wed Sep 18 2024 18:04:18 GMT-0500 (Central Daylight Time) 177025.7    A              cattl       I         l            130              1     2282.2   174743.5       8007   WL         C    6.0
      1     21.727     learn 38273.000002 Wed Sep 18 2024 18:04:18 GMT-0500 (Central Daylight Time) 177175.7    A             cattle       I         e            142              1     2432.2   174743.5       8007   WL         C    6.0
      1     22.492     learn 37508.000135 Wed Sep 18 2024 18:04:18 GMT-0500 (Central Daylight Time) 177941.9    A        cattleenter       I     enter            752              1     3198.4   174743.5       8007   WL         C    6.0
      1     25.675     learn 34325.000048 Wed Sep 18 2024 18:04:18 GMT-0500 (Central Daylight Time) 181125.5    A                  q       I         q           3177              1     3183.3   177942.2       8007   WL         C    7.0
      1     25.824     learn 34176.000118 Wed Sep 18 2024 18:04:18 GMT-0500 (Central Daylight Time) 181274.4    A                 qu       I         u            129              1     3332.2   177942.2       8007   WL         C    7.0
      1     25.991     learn 34009.000063 Wed Sep 18 2024 18:04:18 GMT-0500 (Central Daylight Time) 181441.0    A                que       I         e            157              1     3498.8   177942.2       8007   WL         C    7.0
      1     26.274     learn 33726.000071 Wed Sep 18 2024 18:04:18 GMT-0500 (Central Daylight Time) 181724.1    A               quee       I         e            270              1     3781.9   177942.2       8007   WL         C    7.0
      1     26.524     learn 33476.000071 Wed Sep 18 2024 18:04:18 GMT-0500 (Central Daylight Time) 181974.3    A              queen       I         n            235              1     4032.1   177942.2       8007   WL         C    7.0
      1     26.824     learn 33176.000118 Wed Sep 18 2024 18:04:18 GMT-0500 (Central Daylight Time) 182273.9    A         queenenter       I     enter            281              1     4331.7   177942.2       8007   WL         C    7.0
      1     49.083     learn 10917.000055 Wed Sep 18 2024 18:04:18 GMT-0500 (Central Daylight Time) 204533.6    A              enter       I     enter          22253              1    22259.3   182274.3       8007   WL         C    8.0
      1     50.700     learn  9299.999952 Wed Sep 18 2024 18:04:18 GMT-0500 (Central Daylight Time) 206150.1    A              enter       I     enter           1609              1     1616.2   204533.9       8007   WL         C    9.0
      1     51.001     learn  8999.000072 Wed Sep 18 2024 18:04:18 GMT-0500 (Central Daylight Time) 206450.9    A              enter       I     enter            280              1      300.4   206150.5       8007   WL         C   10.0
      1     51.216     learn  8783.999920 Wed Sep 18 2024 18:04:18 GMT-0500 (Central Daylight Time) 206666.4    A              enter       I     enter            195              1      215.1   206451.3       8007   WL         C   11.0
      1     51.416     learn  8584.000111 Wed Sep 18 2024 18:04:18 GMT-0500 (Central Daylight Time) 206866.3    A              enter       I     enter            189              1      199.5   206666.8       8007   WL         C   12.0
      1     51.633     learn  8367.000103 Wed Sep 18 2024 18:04:18 GMT-0500 (Central Daylight Time) 207082.8    A              enter       I     enter            205              1      216.1   206866.7       8007   WL         C   13.0
      1     51.900     learn  8100.000143 Wed Sep 18 2024 18:04:18 GMT-0500 (Central Daylight Time) 207349.9    A              enter       I     enter            262              1      266.6   207083.3       8007   WL         C   14.0
      1     52.249     learn  7750.999928 Wed Sep 18 2024 18:04:18 GMT-0500 (Central Daylight Time) 207699.3    A              enter       I     enter            328              1      349.0   207350.3       8007   WL         C   15.0
      2      1.016     learn 58983.999968 Wed Sep 18 2024 18:04:18 GMT-0500 (Central Daylight Time) 278577.1    A                  t       I         t            998              1     1016.0   277561.1       8007   WL         C    1.0
      2      1.234     learn 58766.000032 Wed Sep 18 2024 18:04:18 GMT-0500 (Central Daylight Time) 278795.0    A                 to       I         o            205              1     1233.9   277561.1       8007   WL         C    1.0
      2      1.416     learn 58583.999872 Wed Sep 18 2024 18:04:18 GMT-0500 (Central Daylight Time) 278977.2    A                tow       I         w            172              1     1416.1   277561.1       8007   WL         C    1.0
      2      1.533     learn 58467.000008 Wed Sep 18 2024 18:04:18 GMT-0500 (Central Daylight Time) 279093.9    A               towe       I         e            102              1     1532.8   277561.1       8007   WL         C    1.0
      2      1.699     learn 58300.999880 Wed Sep 18 2024 18:04:18 GMT-0500 (Central Daylight Time) 279260.2    A              tower       I         r            146              1     1699.1   277561.1       8007   WL         C    1.0
      2      2.099     learn 57901.000023 Wed Sep 18 2024 18:04:18 GMT-0500 (Central Daylight Time) 279660.1    A         towerenter       I     enter            386              1     2099.0   277561.1       8007   WL         C    1.0
      2      2.549     learn 57450.999975 Wed Sep 18 2024 18:04:18 GMT-0500 (Central Daylight Time) 280109.9    A                  w       I         w            442              1      449.4   279660.5       8007   WL         C    2.0
      2      2.715     learn 57284.999847 Wed Sep 18 2024 18:04:18 GMT-0500 (Central Daylight Time) 280276.4    A                 wh       I         h            161              1      615.9   279660.5       8007   WL         C    2.0
      2      2.832     learn 57167.999983 Wed Sep 18 2024 18:04:18 GMT-0500 (Central Daylight Time) 280393.0    A                whe       I         e            106              1      732.5   279660.5       8007   WL         C    2.0
      2      3.032     learn 56967.999935 Wed Sep 18 2024 18:04:18 GMT-0500 (Central Daylight Time) 280593.2    A               when       I         n            190              1      932.7   279660.5       8007   WL         C    2.0
      2      3.699     learn 56300.999880 Wed Sep 18 2024 18:04:18 GMT-0500 (Central Daylight Time) 281259.6    A                whe       I backspace            653              1     1599.1   279660.5       8007   WL         C    2.0
      2      4.532     learn 55467.999935 Wed Sep 18 2024 18:04:18 GMT-0500 (Central Daylight Time) 282092.9    A               whea       I         a            819              1     2432.4   279660.5       8007   WL         C    2.0
      2      4.648     learn 55351.999998 Wed Sep 18 2024 18:04:18 GMT-0500 (Central Daylight Time) 282209.5    A              wheat       I         t             98              1     2549.0   279660.5       8007   WL         C    2.0
      2      5.348     learn 54651.999950 Wed Sep 18 2024 18:04:18 GMT-0500 (Central Daylight Time) 282909.1    A         wheatenter       I     enter            694              1     3248.6   279660.5       8007   WL         C    2.0
      2      6.298     learn 53701.999903 Wed Sep 18 2024 18:04:18 GMT-0500 (Central Daylight Time) 283858.9    A                  q       I         q            937              1      949.6   282909.3       8007   WL         C    3.0
      2      6.398     learn 53601.999998 Wed Sep 18 2024 18:04:18 GMT-0500 (Central Daylight Time) 283958.7    A                 qu       I         u             83              1     1049.4   282909.3       8007   WL         C    3.0
      2      6.564     learn 53435.999870 Wed Sep 18 2024 18:04:18 GMT-0500 (Central Daylight Time) 284125.4    A                que       I         e            160              1     1216.1   282909.3       8007   WL         C    3.0
      2      6.798     learn 53201.999903 Wed Sep 18 2024 18:04:18 GMT-0500 (Central Daylight Time) 284358.8    A               quee       I         e            226              1     1449.5   282909.3       8007   WL         C    3.0
      2      6.947     learn 53052.999973 Wed Sep 18 2024 18:04:18 GMT-0500 (Central Daylight Time) 284508.3    A              queen       I         n            143              1     1599.0   282909.3       8007   WL         C    3.0
      2      7.564     learn 52435.999870 Wed Sep 18 2024 18:04:18 GMT-0500 (Central Daylight Time) 285125.0    A         queenenter       I     enter            610              1     2215.7   282909.3       8007   WL         C    3.0
      2      8.064     learn 51935.999870 Wed Sep 18 2024 18:04:18 GMT-0500 (Central Daylight Time) 285624.9    A                  c       I         c            483              1      499.6   285125.3       8007   WL         C    4.0
      2      8.164     learn 51835.999966 Wed Sep 18 2024 18:04:18 GMT-0500 (Central Daylight Time) 285724.8    A                 co       I         o             87              1      599.5   285125.3       8007   WL         C    4.0
      2      8.297     learn 51702.999830 Wed Sep 18 2024 18:04:18 GMT-0500 (Central Daylight Time) 285858.2    A                cor       I         r            122              1      732.9   285125.3       8007   WL         C    4.0
      2      8.481     learn 51518.999815 Wed Sep 18 2024 18:04:18 GMT-0500 (Central Daylight Time) 286041.6    A               corn       I         n            165              1      916.3   285125.3       8007   WL         C    4.0
      2      8.747     learn 51253.000021 Wed Sep 18 2024 18:04:18 GMT-0500 (Central Daylight Time) 286307.7    A          cornenter       I     enter            254              1     1182.4   285125.3       8007   WL         C    4.0
      2     10.047     learn 49952.999830 Wed Sep 18 2024 18:04:18 GMT-0500 (Central Daylight Time) 287607.6    A                  b       I         b           1283              1     1299.6   286308.0       8007   WL         C    5.0
      2     10.163     learn 49836.999893 Wed Sep 18 2024 18:04:18 GMT-0500 (Central Daylight Time) 287724.1    A                 bo       I         o            111              1     1416.1   286308.0       8007   WL         C    5.0
      2     10.397     learn 49602.999926 Wed Sep 18 2024 18:04:18 GMT-0500 (Central Daylight Time) 287957.6    A                boy       I         y            219              1     1649.6   286308.0       8007   WL         C    5.0
      2     10.713     learn 49286.999941 Wed Sep 18 2024 18:04:18 GMT-0500 (Central Daylight Time) 288274.0    A           boyenter       I     enter            306              1     1966.0   286308.0       8007   WL         C    5.0
      2     12.713     learn 47286.999941 Wed Sep 18 2024 18:04:18 GMT-0500 (Central Daylight Time) 290273.6    A                  s       I         s           1989              1     1999.2   288274.4       8007   WL         C    6.0
      2     12.796     learn 47203.999996 Wed Sep 18 2024 18:04:18 GMT-0500 (Central Daylight Time) 290356.8    A                 sh       I         h             70              1     2082.4   288274.4       8007   WL         C    6.0
      2     12.913     learn 47086.999893 Wed Sep 18 2024 18:04:18 GMT-0500 (Central Daylight Time) 290473.5    A                sho       I         o             98              1     2199.1   288274.4       8007   WL         C    6.0
      2     13.079     learn 46921.000004 Wed Sep 18 2024 18:04:18 GMT-0500 (Central Daylight Time) 290640.3    A               shor       I         r            150              1     2365.9   288274.4       8007   WL         C    6.0
      2     13.245     learn 46754.999876 Wed Sep 18 2024 18:04:18 GMT-0500 (Central Daylight Time) 290806.6    A              shore       I         e            150              1     2532.2   288274.4       8007   WL         C    6.0
      2     13.712     learn 46287.999868 Wed Sep 18 2024 18:04:18 GMT-0500 (Central Daylight Time) 291273.2    A         shoreenter       I     enter            457              1     2998.8   288274.4       8007   WL         C    6.0
      2     14.295     learn 45704.999924 Wed Sep 18 2024 18:04:18 GMT-0500 (Central Daylight Time) 291856.3    A                  h       I         h            566              1      582.7   291273.6       8007   WL         C    7.0
      2     14.379     learn 45620.999813 Wed Sep 18 2024 18:04:18 GMT-0500 (Central Daylight Time) 291939.7    A                 ho       I         o             71              1      666.1   291273.6       8007   WL         C    7.0
      2     14.612     learn 45388.000011 Wed Sep 18 2024 18:04:18 GMT-0500 (Central Daylight Time) 292172.9    A                hom       I         m            219              1      899.3   291273.6       8007   WL         C    7.0
      2     14.795     learn 45204.999924 Wed Sep 18 2024 18:04:18 GMT-0500 (Central Daylight Time) 292356.2    A               home       I         e            170              1     1082.6   291273.6       8007   WL         C    7.0
      2     14.995     learn 45004.999876 Wed Sep 18 2024 18:04:18 GMT-0500 (Central Daylight Time) 292556.0    A          homeenter       I     enter            187              1     1282.4   291273.6       8007   WL         C    7.0
      2     16.011     learn 43988.999844 Wed Sep 18 2024 18:04:18 GMT-0500 (Central Daylight Time) 293572.5    A                  f       I         f           1003              1     1016.1   292556.4       8007   WL         C    8.0
      2     16.145     learn 43855.000019 Wed Sep 18 2024 18:04:18 GMT-0500 (Central Daylight Time) 293705.9    A                 fl       I         l            122              1     1149.5   292556.4       8007   WL         C    8.0
      2     16.395     learn 43605.000019 Wed Sep 18 2024 18:04:18 GMT-0500 (Central Daylight Time) 293955.7    A                fla       I         a            230              1     1399.3   292556.4       8007   WL         C    8.0
      2     16.794     learn 43205.999851 Wed Sep 18 2024 18:04:18 GMT-0500 (Central Daylight Time) 294355.5    A               flag       I         g            378              1     1799.1   292556.4       8007   WL         C    8.0
      2     17.078     learn 42921.999931 Wed Sep 18 2024 18:04:18 GMT-0500 (Central Daylight Time) 294638.6    A          flagenter       I     enter            276              1     2082.2   292556.4       8007   WL         C    8.0
      2     17.644     learn 42355.999947 Wed Sep 18 2024 18:04:18 GMT-0500 (Central Daylight Time) 295205.3    A                  c       I         c            553              1      566.3   294639.0       8007   WL         C    9.0
      2     17.761     learn 42238.999844 Wed Sep 18 2024 18:04:18 GMT-0500 (Central Daylight Time) 295321.7    A                 ca       I         a            106              1      682.7   294639.0       8007   WL         C    9.0
      2     17.894     learn 42105.999947 Wed Sep 18 2024 18:04:18 GMT-0500 (Central Daylight Time) 295455.2    A                cam       I         m            125              1      816.2   294639.0       8007   WL         C    9.0
      2     18.077     learn 41922.999859 Wed Sep 18 2024 18:04:18 GMT-0500 (Central Daylight Time) 295638.5    A               camp       I         p            177              1      999.5   294639.0       8007   WL         C    9.0
      2     18.527     learn 41472.999811 Wed Sep 18 2024 18:04:18 GMT-0500 (Central Daylight Time) 296088.3    A          campenter       I     enter            440              1     1449.3   294639.0       8007   WL         C    9.0
      2     31.872     learn 28128.000021 Wed Sep 18 2024 18:04:18 GMT-0500 (Central Daylight Time) 309434.1    A                  t       I         t          13327              1    13345.4   296088.7       8007   WL         C   10.0
      2     32.889     learn 27110.999823 Wed Sep 18 2024 18:04:18 GMT-0500 (Central Daylight Time) 310450.6    A                          I backspace           1004              1    14361.9   296088.7       8007   WL         C   10.0
      2     36.555     learn 23444.999933 Wed Sep 18 2024 18:04:18 GMT-0500 (Central Daylight Time) 314116.1    A              enter       I     enter           3661              1    18027.4   296088.7       8007   WL         C   10.0
      2     37.004     learn 22995.999813 Wed Sep 18 2024 18:04:18 GMT-0500 (Central Daylight Time) 314566.0    A              enter       I     enter            435              1      449.6   314116.4       8007   WL         C   11.0
      2     37.254     learn 22745.999813 Wed Sep 18 2024 18:04:18 GMT-0500 (Central Daylight Time) 314815.9    A              enter       I     enter            241              1      249.5   314566.4       8007   WL         C   12.0
      2     37.487     learn 22513.000011 Wed Sep 18 2024 18:04:18 GMT-0500 (Central Daylight Time) 315049.1    A              enter       I     enter            223              1      232.8   314816.3       8007   WL         C   13.0
      2     37.721     learn 22278.999805 Wed Sep 18 2024 18:04:18 GMT-0500 (Central Daylight Time) 315282.3    A              enter       I     enter            213              1      232.9   315049.4       8007   WL         C   14.0
      2     37.954     learn 22046.000004 Wed Sep 18 2024 18:04:18 GMT-0500 (Central Daylight Time) 315515.5    A              enter       I     enter            212              1      232.8   315282.7       8007   WL         C   15.0
      3      0.917     learn 59083.000183 Wed Sep 18 2024 18:04:18 GMT-0500 (Central Daylight Time) 385226.9    A                  t       I         t            897              1      916.5   384310.4       8007   WL         C    1.0
      3      1.084     learn 58916.000128 Wed Sep 18 2024 18:04:18 GMT-0500 (Central Daylight Time) 385393.6    A                 to       I         o            147              1     1083.2   384310.4       8007   WL         C    1.0
      3      1.234     learn 58766.000032 Wed Sep 18 2024 18:04:18 GMT-0500 (Central Daylight Time) 385543.6    A                tow       I         w            142              1     1233.2   384310.4       8007   WL         C    1.0
      3      1.367     learn 58633.000135 Wed Sep 18 2024 18:04:18 GMT-0500 (Central Daylight Time) 385676.6    A               towe       I         e            128              1     1366.2   384310.4       8007   WL         C    1.0
      3      1.517     learn 58483.000040 Wed Sep 18 2024 18:04:18 GMT-0500 (Central Daylight Time) 385826.9    A              tower       I         r            138              1     1516.5   384310.4       8007   WL         C    1.0
      3      1.850     learn 58150.000095 Wed Sep 18 2024 18:04:18 GMT-0500 (Central Daylight Time) 386160.1    A         towerenter       I     enter            325              1     1849.7   384310.4       8007   WL         C    1.0
      3      2.700     learn 57299.999952 Wed Sep 18 2024 18:04:18 GMT-0500 (Central Daylight Time) 387009.9    A                  w       I         w            831              1      849.5   386160.4       8007   WL         C    2.0
      3      2.800     learn 57200.000048 Wed Sep 18 2024 18:04:18 GMT-0500 (Central Daylight Time) 387109.7    A                 wh       I         h             85              1      949.3   386160.4       8007   WL         C    2.0
      3      2.999     learn 57001.000166 Wed Sep 18 2024 18:04:18 GMT-0500 (Central Daylight Time) 387309.6    A                whe       I         e            185              1     1149.2   386160.4       8007   WL         C    2.0
      3      3.199     learn 56801.000118 Wed Sep 18 2024 18:04:18 GMT-0500 (Central Daylight Time) 387509.5    A               whea       I         a            185              1     1349.1   386160.4       8007   WL         C    2.0
      3      3.299     learn 56700.999975 Wed Sep 18 2024 18:04:18 GMT-0500 (Central Daylight Time) 387609.6    A              wheat       I         t             90              1     1449.2   386160.4       8007   WL         C    2.0
      3      4.499     learn 55501.000166 Wed Sep 18 2024 18:04:18 GMT-0500 (Central Daylight Time) 388809.2    A         wheatenter       I     enter           1182              1     2648.8   386160.4       8007   WL         C    2.0
      3      5.016     learn 54983.999968 Wed Sep 18 2024 18:04:18 GMT-0500 (Central Daylight Time) 389325.7    A                  q       I         q            502              1      516.2   388809.5       8007   WL         C    3.0
      3      5.166     learn 54834.000111 Wed Sep 18 2024 18:04:18 GMT-0500 (Central Daylight Time) 389475.7    A                 qu       I         u            138              1      666.2   388809.5       8007   WL         C    3.0
      3      5.249     learn 54751.000166 Wed Sep 18 2024 18:04:18 GMT-0500 (Central Daylight Time) 389559.0    A                que       I         e             75              1      749.5   388809.5       8007   WL         C    3.0
      3      5.749     learn 54251.000166 Wed Sep 18 2024 18:04:18 GMT-0500 (Central Daylight Time) 390058.8    A               quee       I         e            480              1     1249.3   388809.5       8007   WL         C    3.0
      3      6.000     learn 54000.000000 Wed Sep 18 2024 18:04:18 GMT-0500 (Central Daylight Time) 390309.7    A              queen       I         n            244              1     1500.2   388809.5       8007   WL         C    3.0
      3      6.615     learn 53384.999990 Wed Sep 18 2024 18:04:18 GMT-0500 (Central Daylight Time) 390925.3    A         queenenter       I     enter            600              1     2115.8   388809.5       8007   WL         C    3.0
      3      7.048     learn 52952.000141 Wed Sep 18 2024 18:04:18 GMT-0500 (Central Daylight Time) 391358.4    A                  c       I         c            417              1      432.7   390925.7       8007   WL         C    4.0
      3      7.165     learn 52835.000038 Wed Sep 18 2024 18:04:18 GMT-0500 (Central Daylight Time) 391475.7    A                 co       I         o            112              1      550.0   390925.7       8007   WL         C    4.0
      3      7.315     learn 52685.000181 Wed Sep 18 2024 18:04:18 GMT-0500 (Central Daylight Time) 391625.2    A                cor       I         r            140              1      699.5   390925.7       8007   WL         C    4.0
      3      7.532     learn 52468.000174 Wed Sep 18 2024 18:04:18 GMT-0500 (Central Daylight Time) 391841.8    A               corn       I         n            205              1      916.1   390925.7       8007   WL         C    4.0
      3      8.748     learn 51252.000093 Wed Sep 18 2024 18:04:18 GMT-0500 (Central Daylight Time) 393057.9    A          cornenter       I     enter           1206              1     2132.2   390925.7       8007   WL         C    4.0
      3      9.281     learn 50719.000101 Wed Sep 18 2024 18:04:18 GMT-0500 (Central Daylight Time) 393590.9    A                  c       I         c            518              1      532.7   393058.2       8007   WL         C    5.0
      3      9.398     learn 50601.999998 Wed Sep 18 2024 18:04:18 GMT-0500 (Central Daylight Time) 393707.8    A                 ca       I         a            111              1      649.6   393058.2       8007   WL         C    5.0
      3      9.581     learn 50419.000149 Wed Sep 18 2024 18:04:18 GMT-0500 (Central Daylight Time) 393891.0    A                cam       I         m            172              1      832.8   393058.2       8007   WL         C    5.0
      3      9.764     learn 50236.000061 Wed Sep 18 2024 18:04:18 GMT-0500 (Central Daylight Time) 394074.2    A               camp       I         p            172              1     1016.0   393058.2       8007   WL         C    5.0
      3     10.098     learn 49901.999950 Wed Sep 18 2024 18:04:18 GMT-0500 (Central Daylight Time) 394407.6    A          campenter       I     enter            325              1     1349.4   393058.2       8007   WL         C    5.0
      3     10.430     learn 49570.000172 Wed Sep 18 2024 18:04:18 GMT-0500 (Central Daylight Time) 394740.4    A                  d       I         d            320              1      332.5   394407.9       8007   WL         C    6.0
      3     10.547     learn 49453.000069 Wed Sep 18 2024 18:04:18 GMT-0500 (Central Daylight Time) 394857.5    A                 do       I         o            107              1      449.6   394407.9       8007   WL         C    6.0
      3     10.714     learn 49286.000013 Wed Sep 18 2024 18:04:18 GMT-0500 (Central Daylight Time) 395023.8    A                doc       I         c            158              1      615.9   394407.9       8007   WL         C    6.0
      3     10.947     learn 49052.999973 Wed Sep 18 2024 18:04:18 GMT-0500 (Central Daylight Time) 395257.0    A               doct       I         t            216              1      849.1   394407.9       8007   WL         C    6.0
      3     11.064     learn 48936.000109 Wed Sep 18 2024 18:04:18 GMT-0500 (Central Daylight Time) 395373.8    A              docto       I         o            102              1      965.9   394407.9       8007   WL         C    6.0
      3     11.214     learn 48786.000013 Wed Sep 18 2024 18:04:18 GMT-0500 (Central Daylight Time) 395524.1    A             doctor       I         r            138              1     1116.2   394407.9       8007   WL         C    6.0
      3     11.575     learn 48424.999952 Wed Sep 18 2024 18:04:18 GMT-0500 (Central Daylight Time) 395884.8    A        doctorenter       I     enter            356              1     1476.9   394407.9       8007   WL         C    6.0
      3     13.063     learn 46937.000036 Wed Sep 18 2024 18:04:18 GMT-0500 (Central Daylight Time) 397373.3    A                  s       I         s           1475              1     1488.3   395885.0       8007   WL         C    7.0
      3     13.146     learn 46854.000092 Wed Sep 18 2024 18:04:18 GMT-0500 (Central Daylight Time) 397456.5    A                 sh       I         h             66              1     1571.5   395885.0       8007   WL         C    7.0
      3     13.230     learn 46769.999981 Wed Sep 18 2024 18:04:18 GMT-0500 (Central Daylight Time) 397539.7    A                sho       I         o             78              1     1654.7   395885.0       8007   WL         C    7.0
      3     13.396     learn 46604.000092 Wed Sep 18 2024 18:04:18 GMT-0500 (Central Daylight Time) 397706.5    A               shor       I         r            148              1     1821.5   395885.0       8007   WL         C    7.0
      3     13.513     learn 46486.999989 Wed Sep 18 2024 18:04:18 GMT-0500 (Central Daylight Time) 397823.0    A              shore       I         e            101              1     1938.0   395885.0       8007   WL         C    7.0
      3     13.729     learn 46271.000147 Wed Sep 18 2024 18:04:18 GMT-0500 (Central Daylight Time) 398039.5    A         shoreenter       I     enter            208              1     2154.5   395885.0       8007   WL         C    7.0
      3     15.480     learn 44519.999981 Wed Sep 18 2024 18:04:18 GMT-0500 (Central Daylight Time) 399790.2    A                  w       I         w           1744              1     1750.4   398039.8       8007   WL         C    8.0
      3     15.646     learn 44354.000092 Wed Sep 18 2024 18:04:18 GMT-0500 (Central Daylight Time) 399955.8    A                 wh       I         h            144              1     1916.0   398039.8       8007   WL         C    8.0
      3     15.812     learn 44187.999964 Wed Sep 18 2024 18:04:18 GMT-0500 (Central Daylight Time) 400122.3    A                whe       I         e            148              1     2082.5   398039.8       8007   WL         C    8.0
      3     16.012     learn 43988.000154 Wed Sep 18 2024 18:04:18 GMT-0500 (Central Daylight Time) 400322.2    A               whea       I         a            181              1     2282.4   398039.8       8007   WL         C    8.0
      3     16.096     learn 43904.000044 Wed Sep 18 2024 18:04:18 GMT-0500 (Central Daylight Time) 400405.7    A              wheat       I         t             69              1     2365.9   398039.8       8007   WL         C    8.0
      3     16.379     learn 43621.000051 Wed Sep 18 2024 18:04:18 GMT-0500 (Central Daylight Time) 400688.7    A         wheatenter       I     enter            265              1     2648.9   398039.8       8007   WL         C    8.0
      3     21.077     learn 38923.000097 Wed Sep 18 2024 18:04:18 GMT-0500 (Central Daylight Time) 405387.4    A                  d       I         d           4686              1     4698.4   400689.0       8007   WL         C    9.0
      3     21.227     learn 38773.000002 Wed Sep 18 2024 18:04:18 GMT-0500 (Central Daylight Time) 405537.2    A                 do       I         o            132              1     4848.2   400689.0       8007   WL         C    9.0
      3     21.377     learn 38623.000145 Wed Sep 18 2024 18:04:18 GMT-0500 (Central Daylight Time) 405687.4    A                doc       I         c            143              1     4998.4   400689.0       8007   WL         C    9.0
      3     21.594     learn 38406.000137 Wed Sep 18 2024 18:04:18 GMT-0500 (Central Daylight Time) 405903.8    A               doct       I         t            207              1     5214.8   400689.0       8007   WL         C    9.0
      3     21.710     learn 38289.999962 Wed Sep 18 2024 18:04:18 GMT-0500 (Central Daylight Time) 406020.3    A              docto       I         o            112              1     5331.3   400689.0       8007   WL         C    9.0
      3     21.910     learn 38090.000153 Wed Sep 18 2024 18:04:18 GMT-0500 (Central Daylight Time) 406220.5    A             doctor       I         r            186              1     5531.5   400689.0       8007   WL         C    9.0
      3     22.110     learn 37890.000105 Wed Sep 18 2024 18:04:18 GMT-0500 (Central Daylight Time) 406420.5    A        doctorenter       I     enter            187              1     5731.5   400689.0       8007   WL         C    9.0
      3     29.591     learn 30409.000158 Wed Sep 18 2024 18:04:18 GMT-0500 (Central Daylight Time) 413901.4    A                  c       I         c           7466              1     7480.7   406420.7       8007   WL         C   10.0
      3     29.725     learn 30275.000095 Wed Sep 18 2024 18:04:18 GMT-0500 (Central Daylight Time) 414034.7    A                 co       I         o            121              1     7614.0   406420.7       8007   WL         C   10.0
      3     29.858     learn 30141.999960 Wed Sep 18 2024 18:04:18 GMT-0500 (Central Daylight Time) 414167.9    A                cor       I         r            117              1     7747.2   406420.7       8007   WL         C   10.0
      3     30.508     learn 29492.000103 Wed Sep 18 2024 18:04:18 GMT-0500 (Central Daylight Time) 414817.7    A               corn       I         n            631              1     8397.0   406420.7       8007   WL         C   10.0
      3     30.758     learn 29242.000103 Wed Sep 18 2024 18:04:18 GMT-0500 (Central Daylight Time) 415067.9    A          cornenter       I     enter            229              1     8647.2   406420.7       8007   WL         C   10.0
      3     41.037     learn 18963.000059 Wed Sep 18 2024 18:04:18 GMT-0500 (Central Daylight Time) 425347.7    A                  b       I         b          10267              1    10279.5   415068.2       8007   WL         C   11.0
      3     41.170     learn 18830.000162 Wed Sep 18 2024 18:04:18 GMT-0500 (Central Daylight Time) 425481.0    A                 bo       I         o            123              1    10412.8   415068.2       8007   WL         C   11.0
      3     41.370     learn 18630.000114 Wed Sep 18 2024 18:04:18 GMT-0500 (Central Daylight Time) 425680.9    A                boy       I         y            190              1    10612.7   415068.2       8007   WL         C   11.0
      3     41.937     learn 18062.999964 Wed Sep 18 2024 18:04:18 GMT-0500 (Central Daylight Time) 426247.6    A           boyenter       I     enter            549              1    11179.4   415068.2       8007   WL         C   11.0
      3     42.470     learn 17529.999971 Wed Sep 18 2024 18:04:18 GMT-0500 (Central Daylight Time) 426780.7    A                  h       I         h            520              1      532.8   426247.9       8007   WL         C   12.0
      3     42.553     learn 17447.000027 Wed Sep 18 2024 18:04:18 GMT-0500 (Central Daylight Time) 426863.9    A                 ho       I         o             75              1      616.0   426247.9       8007   WL         C   12.0
      3     42.803     learn 17197.000027 Wed Sep 18 2024 18:04:18 GMT-0500 (Central Daylight Time) 427113.9    A                hom       I         m            232              1      866.0   426247.9       8007   WL         C   12.0
      3     43.020     learn 16980.000019 Wed Sep 18 2024 18:04:18 GMT-0500 (Central Daylight Time) 427330.2    A               home       I         e            205              1     1082.3   426247.9       8007   WL         C   12.0
      3     43.203     learn 16797.000170 Wed Sep 18 2024 18:04:18 GMT-0500 (Central Daylight Time) 427513.6    A          homeenter       I     enter            163              1     1265.7   426247.9       8007   WL         C   12.0
      3     53.650     learn  6350.000143 Wed Sep 18 2024 18:04:18 GMT-0500 (Central Daylight Time) 437960.6    A              enter       I     enter          10430              1    10446.6   427514.0       8007   WL         C   13.0
      3     56.033     learn  3967.000008 Wed Sep 18 2024 18:04:18 GMT-0500 (Central Daylight Time) 440343.3    A              enter       I     enter           2374              1     2382.4   437960.9       8007   WL         C   14.0
      3     56.432     learn  3568.000078 Wed Sep 18 2024 18:04:18 GMT-0500 (Central Daylight Time) 440742.9    A              enter       I     enter            391              1      399.3   440343.6       8007   WL         C   15.0
      4      0.749     learn 59250.999928 Wed Sep 18 2024 18:04:18 GMT-0500 (Central Daylight Time) 510054.5    A                  l       I         l            735              1      749.4   509305.1       8007   WL         C    1.0
      4      0.899     learn 59101.000071 Wed Sep 18 2024 18:04:18 GMT-0500 (Central Daylight Time) 510204.4    A                 le       I         e            144              1      899.3   509305.1       8007   WL         C    1.0
      4      1.099     learn 58901.000023 Wed Sep 18 2024 18:04:18 GMT-0500 (Central Daylight Time) 510404.7    A                let       I         t            186              1     1099.6   509305.1       8007   WL         C    1.0
      4      1.316     learn 58684.000015 Wed Sep 18 2024 18:04:18 GMT-0500 (Central Daylight Time) 510620.8    A               lett       I         t            203              1     1315.7   509305.1       8007   WL         C    1.0
      4      1.416     learn 58584.000111 Wed Sep 18 2024 18:04:18 GMT-0500 (Central Daylight Time) 510721.1    A              lette       I         e             83              1     1416.0   509305.1       8007   WL         C    1.0
      4      1.566     learn 58434.000015 Wed Sep 18 2024 18:04:18 GMT-0500 (Central Daylight Time) 510871.0    A             letter       I         r            142              1     1565.9   509305.1       8007   WL         C    1.0
      4      1.632     learn 58368.000031 Wed Sep 18 2024 18:04:18 GMT-0500 (Central Daylight Time) 510937.5    A            lettert       I         t             48              1     1632.4   509305.1       8007   WL         C    1.0
      4      2.199     learn 57801.000118 Wed Sep 18 2024 18:04:18 GMT-0500 (Central Daylight Time) 511504.0    A             letter       I backspace            558              1     2198.9   509305.1       8007   WL         C    1.0
      4      3.065     learn 56934.999943 Wed Sep 18 2024 18:04:18 GMT-0500 (Central Daylight Time) 512370.6    A        letterenter       I     enter            855              1     3065.5   509305.1       8007   WL         C    1.0
      4      3.798     learn 56202.000141 Wed Sep 18 2024 18:04:18 GMT-0500 (Central Daylight Time) 513103.6    A                  b       I         b            725              1      732.7   512370.9       8007   WL         C    2.0
      4      3.899     learn 56101.000071 Wed Sep 18 2024 18:04:18 GMT-0500 (Central Daylight Time) 513203.9    A                 bo       I         o             79              1      833.0   512370.9       8007   WL         C    2.0
      4      4.128     learn 55871.999979 Wed Sep 18 2024 18:04:18 GMT-0500 (Central Daylight Time) 513433.0    A                boy       I         y            225              1     1062.1   512370.9       8007   WL         C    2.0
      4      4.431     learn 55569.000006 Wed Sep 18 2024 18:04:18 GMT-0500 (Central Daylight Time) 513736.4    A           boyenter       I     enter            294              1     1365.5   512370.9       8007   WL         C    2.0
      4      4.881     learn 55118.999958 Wed Sep 18 2024 18:04:18 GMT-0500 (Central Daylight Time) 514186.7    A                  c       I         c            431              1      450.0   513736.7       8007   WL         C    3.0
      4      5.015     learn 54985.000134 Wed Sep 18 2024 18:04:18 GMT-0500 (Central Daylight Time) 514319.8    A                 ca       I         a            116              1      583.1   513736.7       8007   WL         C    3.0
      4      5.115     learn 54884.999990 Wed Sep 18 2024 18:04:18 GMT-0500 (Central Daylight Time) 514420.0    A                cat       I         t             96              1      683.3   513736.7       8007   WL         C    3.0
      4      5.348     learn 54651.999950 Wed Sep 18 2024 18:04:18 GMT-0500 (Central Daylight Time) 514653.0    A               catt       I         t            220              1      916.3   513736.7       8007   WL         C    3.0
      4      5.481     learn 54519.000053 Wed Sep 18 2024 18:04:18 GMT-0500 (Central Daylight Time) 514786.4    A              cattl       I         l            123              1     1049.7   513736.7       8007   WL         C    3.0
      4      5.648     learn 54351.999998 Wed Sep 18 2024 18:04:18 GMT-0500 (Central Daylight Time) 514953.1    A             cattle       I         e            148              1     1216.4   513736.7       8007   WL         C    3.0
      4      5.999     learn 54000.999928 Wed Sep 18 2024 18:04:18 GMT-0500 (Central Daylight Time) 515304.2    A            cattleh       I         h            335              1     1567.5   513736.7       8007   WL         C    3.0
      4      6.064     learn 53936.000109 Wed Sep 18 2024 18:04:18 GMT-0500 (Central Daylight Time) 515369.6    A           cattleho       I         o             55              1     1632.9   513736.7       8007   WL         C    3.0
      4      6.397     learn 53602.999926 Wed Sep 18 2024 18:04:18 GMT-0500 (Central Daylight Time) 515702.7    A          cattlehom       I         m            318              1     1966.0   513736.7       8007   WL         C    3.0
      4      6.814     learn 53186.000109 Wed Sep 18 2024 18:04:18 GMT-0500 (Central Daylight Time) 516119.3    A           cattleho       I backspace            401              1     2382.6   513736.7       8007   WL         C    3.0
      4      7.064     learn 52936.000109 Wed Sep 18 2024 18:04:18 GMT-0500 (Central Daylight Time) 516369.2    A            cattleh       I backspace            233              1     2632.5   513736.7       8007   WL         C    3.0
      4      7.264     learn 52736.000061 Wed Sep 18 2024 18:04:18 GMT-0500 (Central Daylight Time) 516569.1    A             cattle       I backspace            181              1     2832.4   513736.7       8007   WL         C    3.0
      4      7.481     learn 52519.000053 Wed Sep 18 2024 18:04:18 GMT-0500 (Central Daylight Time) 516785.8    A              cattl       I backspace            199              1     3049.1   513736.7       8007   WL         C    3.0
      4      8.197     learn 51802.999973 Wed Sep 18 2024 18:04:18 GMT-0500 (Central Daylight Time) 517502.2    A             cattle       I         e            709              1     3765.5   513736.7       8007   WL         C    3.0
      4      8.447     learn 51552.999973 Wed Sep 18 2024 18:04:18 GMT-0500 (Central Daylight Time) 517752.2    A        cattleenter       I     enter            233              1     4015.5   513736.7       8007   WL         C    3.0
      4      8.980     learn 51019.999981 Wed Sep 18 2024 18:04:18 GMT-0500 (Central Daylight Time) 518285.3    A                  h       I         h            527              1      532.8   517752.5       8007   WL         C    4.0
      4      9.080     learn 50920.000076 Wed Sep 18 2024 18:04:18 GMT-0500 (Central Daylight Time) 518385.2    A                 ho       I         o             90              1      632.7   517752.5       8007   WL         C    4.0
      4      9.330     learn 50670.000076 Wed Sep 18 2024 18:04:18 GMT-0500 (Central Daylight Time) 518635.1    A                hom       I         m            238              1      882.6   517752.5       8007   WL         C    4.0
      4      9.530     learn 50470.000029 Wed Sep 18 2024 18:04:18 GMT-0500 (Central Daylight Time) 518835.3    A               home       I         e            179              1     1082.8   517752.5       8007   WL         C    4.0
      4     10.363     learn 49637.000084 Wed Sep 18 2024 18:04:18 GMT-0500 (Central Daylight Time) 519668.1    A              homet       I         t            812              1     1915.6   517752.5       8007   WL         C    4.0
      4     10.480     learn 49519.999981 Wed Sep 18 2024 18:04:18 GMT-0500 (Central Daylight Time) 519784.8    A             hometo       I         o             99              1     2032.3   517752.5       8007   WL         C    4.0
      4     10.946     learn 49054.000139 Wed Sep 18 2024 18:04:18 GMT-0500 (Central Daylight Time) 520251.2    A              homet       I backspace            454              1     2498.7   517752.5       8007   WL         C    4.0
      4     11.696     learn 48304.000139 Wed Sep 18 2024 18:04:18 GMT-0500 (Central Daylight Time) 521001.4    A               home       I backspace            731              1     3248.9   517752.5       8007   WL         C    4.0
      4     12.329     learn 47671.000004 Wed Sep 18 2024 18:04:18 GMT-0500 (Central Daylight Time) 521634.1    A          homeenter       I     enter            622              1     3881.6   517752.5       8007   WL         C    4.0
      4     13.679     learn 46321.000099 Wed Sep 18 2024 18:04:18 GMT-0500 (Central Daylight Time) 522984.0    A                  t       I         t           1341              1     1349.5   521634.5       8007   WL         C    5.0
      4     13.812     learn 46187.999964 Wed Sep 18 2024 18:04:18 GMT-0500 (Central Daylight Time) 523116.9    A                 to       I         o            128              1     1482.4   521634.5       8007   WL         C    5.0
      4     14.012     learn 45987.999916 Wed Sep 18 2024 18:04:18 GMT-0500 (Central Daylight Time) 523317.0    A                tow       I         w            187              1     1682.5   521634.5       8007   WL         C    5.0
      4     14.096     learn 45904.000044 Wed Sep 18 2024 18:04:18 GMT-0500 (Central Daylight Time) 523401.6    A               towe       I         e             74              1     1767.1   521634.5       8007   WL         C    5.0
      4     14.278     learn 45722.000122 Wed Sep 18 2024 18:04:18 GMT-0500 (Central Daylight Time) 523583.7    A              tower       I         r            166              1     1949.2   521634.5       8007   WL         C    5.0
      4     14.645     learn 45355.000019 Wed Sep 18 2024 18:04:18 GMT-0500 (Central Daylight Time) 523950.1    A         towerenter       I     enter            360              1     2315.6   521634.5       8007   WL         C    5.0
      4     15.178     learn 44822.000027 Wed Sep 18 2024 18:04:18 GMT-0500 (Central Daylight Time) 524483.2    A                  w       I         w            521              1      532.7   523950.5       8007   WL         C    6.0
      4     15.295     learn 44704.999924 Wed Sep 18 2024 18:04:18 GMT-0500 (Central Daylight Time) 524600.2    A                 wh       I         h            107              1      649.7   523950.5       8007   WL         C    6.0
      4     15.428     learn 44572.000027 Wed Sep 18 2024 18:04:18 GMT-0500 (Central Daylight Time) 524733.5    A                whe       I         e            120              1      783.0   523950.5       8007   WL         C    6.0
      4     15.778     learn 44222.000122 Wed Sep 18 2024 18:04:18 GMT-0500 (Central Daylight Time) 525083.3    A               whea       I         a            338              1     1132.8   523950.5       8007   WL         C    6.0
      4     15.878     learn 44121.999979 Wed Sep 18 2024 18:04:18 GMT-0500 (Central Daylight Time) 525183.2    A              wheat       I         t             84              1     1232.7   523950.5       8007   WL         C    6.0
      4     16.661     learn 43338.999987 Wed Sep 18 2024 18:04:18 GMT-0500 (Central Daylight Time) 525966.2    A         wheatenter       I     enter            777              1     2015.7   523950.5       8007   WL         C    6.0
      4     17.061     learn 42939.000130 Wed Sep 18 2024 18:04:18 GMT-0500 (Central Daylight Time) 526366.0    A                  c       I         c            394              1      399.4   525966.6       8007   WL         C    7.0
      4     17.161     learn 42838.999987 Wed Sep 18 2024 18:04:18 GMT-0500 (Central Daylight Time) 526466.1    A                 co       I         o             89              1      499.5   525966.6       8007   WL         C    7.0
      4     17.311     learn 42689.000130 Wed Sep 18 2024 18:04:18 GMT-0500 (Central Daylight Time) 526616.0    A                cor       I         r            134              1      649.4   525966.6       8007   WL         C    7.0
      4     17.478     learn 42522.000074 Wed Sep 18 2024 18:04:18 GMT-0500 (Central Daylight Time) 526782.8    A               corn       I         n            160              1      816.2   525966.6       8007   WL         C    7.0
      4     17.744     learn 42256.000042 Wed Sep 18 2024 18:04:18 GMT-0500 (Central Daylight Time) 527049.4    A          cornenter       I     enter            248              1     1082.8   525966.6       8007   WL         C    7.0
      4     18.227     learn 41773.000002 Wed Sep 18 2024 18:04:18 GMT-0500 (Central Daylight Time) 527532.4    A                  c       I         c            469              1      482.7   527049.7       8007   WL         C    8.0
      4     18.327     learn 41673.000097 Wed Sep 18 2024 18:04:18 GMT-0500 (Central Daylight Time) 527632.3    A                 ca       I         a             82              1      582.6   527049.7       8007   WL         C    8.0
      4     18.411     learn 41588.999987 Wed Sep 18 2024 18:04:18 GMT-0500 (Central Daylight Time) 527715.9    A                cam       I         m             79              1      666.2   527049.7       8007   WL         C    8.0
      4     18.577     learn 41423.000097 Wed Sep 18 2024 18:04:18 GMT-0500 (Central Daylight Time) 527882.4    A               camo       I         o            156              1      832.7   527049.7       8007   WL         C    8.0
      4     19.193     learn 40806.999922 Wed Sep 18 2024 18:04:18 GMT-0500 (Central Daylight Time) 528498.6    A                cam       I backspace            605              1     1448.9   527049.7       8007   WL         C    8.0
      4     19.877     learn 40122.999907 Wed Sep 18 2024 18:04:18 GMT-0500 (Central Daylight Time) 529182.1    A               camp       I         p            669              1     2132.4   527049.7       8007   WL         C    8.0
      4     20.193     learn 39806.999922 Wed Sep 18 2024 18:04:18 GMT-0500 (Central Daylight Time) 529498.4    A          campenter       I     enter            298              1     2448.7   527049.7       8007   WL         C    8.0
      4     20.593     learn 39407.000065 Wed Sep 18 2024 18:04:18 GMT-0500 (Central Daylight Time) 529898.3    A                  f       I         f            389              1      399.5   529498.8       8007   WL         C    9.0
      4     20.760     learn 39240.000010 Wed Sep 18 2024 18:04:18 GMT-0500 (Central Daylight Time) 530064.9    A                 fl       I         l            149              1      566.1   529498.8       8007   WL         C    9.0
      4     20.926     learn 39074.000120 Wed Sep 18 2024 18:04:18 GMT-0500 (Central Daylight Time) 530231.7    A                fla       I         a            151              1      732.9   529498.8       8007   WL         C    9.0
      4     21.309     learn 38690.999985 Wed Sep 18 2024 18:04:18 GMT-0500 (Central Daylight Time) 530614.7    A               flag       I         g            368              1     1115.9   529498.8       8007   WL         C    9.0
      4     21.643     learn 38357.000113 Wed Sep 18 2024 18:04:18 GMT-0500 (Central Daylight Time) 530947.9    A          flagenter       I     enter            321              1     1449.1   529498.8       8007   WL         C    9.0
      4     21.993     learn 38006.999969 Wed Sep 18 2024 18:04:18 GMT-0500 (Central Daylight Time) 531297.8    A                  s       I         s            331              1      349.6   530948.2       8007   WL         C   10.0
      4     22.109     learn 37891.000032 Wed Sep 18 2024 18:04:18 GMT-0500 (Central Daylight Time) 531414.5    A                 su       I         u            110              1      466.3   530948.2       8007   WL         C   10.0
      4     22.259     learn 37740.999937 Wed Sep 18 2024 18:04:18 GMT-0500 (Central Daylight Time) 531564.4    A                sug       I         g            129              1      616.2   530948.2       8007   WL         C   10.0
      4     22.460     learn 37539.999962 Wed Sep 18 2024 18:04:18 GMT-0500 (Central Daylight Time) 531765.5    A               suga       I         a            195              1      817.3   530948.2       8007   WL         C   10.0
      4     22.576     learn 37424.000025 Wed Sep 18 2024 18:04:18 GMT-0500 (Central Daylight Time) 531880.9    A              sugar       I         r             98              1      932.7   530948.2       8007   WL         C   10.0
      4     22.793     learn 37207.000017 Wed Sep 18 2024 18:04:18 GMT-0500 (Central Daylight Time) 532097.8    A         sugarenter       I     enter            197              1     1149.6   530948.2       8007   WL         C   10.0
      4     27.308     learn 32691.999912 Wed Sep 18 2024 18:04:18 GMT-0500 (Central Daylight Time) 536612.8    A                  q       I         q           4509              1     4514.7   532098.1       8007   WL         C   11.0
      4     27.424     learn 32575.999975 Wed Sep 18 2024 18:04:18 GMT-0500 (Central Daylight Time) 536729.7    A                 qu       I         u            107              1     4631.6   532098.1       8007   WL         C   11.0
      4     27.687     learn 32312.999964 Wed Sep 18 2024 18:04:18 GMT-0500 (Central Daylight Time) 536992.1    A                que       I         e            258              1     4894.0   532098.1       8007   WL         C   11.0
      4     27.834     learn 32166.000128 Wed Sep 18 2024 18:04:18 GMT-0500 (Central Daylight Time) 537139.5    A               quee       I         e            142              1     5041.4   532098.1       8007   WL         C   11.0
      4     28.074     learn 31926.000118 Wed Sep 18 2024 18:04:18 GMT-0500 (Central Daylight Time) 537379.5    A              queen       I         n            227              1     5281.4   532098.1       8007   WL         C   11.0
      4     28.341     learn 31658.999920 Wed Sep 18 2024 18:04:18 GMT-0500 (Central Daylight Time) 537645.9    A         queenenter       I     enter            259              1     5547.8   532098.1       8007   WL         C   11.0
      4     28.957     learn 31042.999983 Wed Sep 18 2024 18:04:18 GMT-0500 (Central Daylight Time) 538262.4    A                  t       I         t            609              1      616.1   537646.3       8007   WL         C   12.0
      4     29.107     learn 30893.000126 Wed Sep 18 2024 18:04:18 GMT-0500 (Central Daylight Time) 538412.2    A                 to       I         o            144              1      765.9   537646.3       8007   WL         C   12.0
      4     29.240     learn 30759.999990 Wed Sep 18 2024 18:04:18 GMT-0500 (Central Daylight Time) 538545.6    A                tow       I         w            116              1      899.3   537646.3       8007   WL         C   12.0
      4     29.390     learn 30610.000134 Wed Sep 18 2024 18:04:18 GMT-0500 (Central Daylight Time) 538695.7    A               towe       I         e            142              1     1049.4   537646.3       8007   WL         C   12.0
      4     29.523     learn 30476.999998 Wed Sep 18 2024 18:04:18 GMT-0500 (Central Daylight Time) 538828.9    A              tower       I         r            127              1     1182.6   537646.3       8007   WL         C   12.0
      4     29.807     learn 30193.000078 Wed Sep 18 2024 18:04:18 GMT-0500 (Central Daylight Time) 539112.2    A         towerenter       I     enter            274              1     1465.9   537646.3       8007   WL         C   12.0
      4     34.355     learn 25644.999981 Wed Sep 18 2024 18:04:18 GMT-0500 (Central Daylight Time) 543660.4    A                  b       I         b           4544              1     4547.9   539112.5       8007   WL         C   13.0
      4     34.488     learn 25512.000084 Wed Sep 18 2024 18:04:18 GMT-0500 (Central Daylight Time) 543794.1    A                 bo       I         o            115              1     4681.6   539112.5       8007   WL         C   13.0
      4     34.672     learn 25328.000069 Wed Sep 18 2024 18:04:18 GMT-0500 (Central Daylight Time) 543977.1    A                boy       I         y            165              1     4864.6   539112.5       8007   WL         C   13.0
      4     34.971     learn 25029.000044 Wed Sep 18 2024 18:04:18 GMT-0500 (Central Daylight Time) 544277.0    A           boyenter       I     enter            287              1     5164.5   539112.5       8007   WL         C   13.0
      4     47.984     learn 12016.000032 Wed Sep 18 2024 18:04:18 GMT-0500 (Central Daylight Time) 557289.7    A                  h       I         h          12995              1    13012.3   544277.4       8007   WL         C   14.0
      4     48.101     learn 11898.999929 Wed Sep 18 2024 18:04:18 GMT-0500 (Central Daylight Time) 557406.4    A                 ho       I         o            109              1    13129.0   544277.4       8007   WL         C   14.0
      4     48.351     learn 11648.999929 Wed Sep 18 2024 18:04:18 GMT-0500 (Central Daylight Time) 557656.2    A                hom       I         m            233              1    13378.8   544277.4       8007   WL         C   14.0
      4     48.501     learn 11499.000072 Wed Sep 18 2024 18:04:18 GMT-0500 (Central Daylight Time) 557806.2    A               home       I         e            136              1    13528.8   544277.4       8007   WL         C   14.0
      4     48.650     learn 11350.000143 Wed Sep 18 2024 18:04:18 GMT-0500 (Central Daylight Time) 557956.1    A          homeenter       I     enter            137              1    13678.7   544277.4       8007   WL         C   14.0
      4     50.933     learn  9066.999912 Wed Sep 18 2024 18:04:18 GMT-0500 (Central Daylight Time) 560238.9    A              enter       I     enter           2276              1     2282.5   557956.4       8007   WL         C   15.0
      5      0.700     learn 60000.000000 Wed Sep 18 2024 18:04:18 GMT-0500 (Central Daylight Time) 627067.9    A                  t       I         t            689              1      699.9   626368.0       8007   WL         C    1.0
      5      0.867     learn 60000.000000 Wed Sep 18 2024 18:04:18 GMT-0500 (Central Daylight Time) 627234.7    A                 to       I         o            155              1      866.7   626368.0       8007   WL         C    1.0
      5      0.983     learn 60000.000000 Wed Sep 18 2024 18:04:18 GMT-0500 (Central Daylight Time) 627351.0    A                tow       I         w            109              1      983.0   626368.0       8007   WL         C    1.0
      5      1.233     learn 60000.000000 Wed Sep 18 2024 18:04:18 GMT-0500 (Central Daylight Time) 627601.1    A               towe       I         e            233              1     1233.1   626368.0       8007   WL         C    1.0
      5      1.350     learn 60000.000000 Wed Sep 18 2024 18:04:18 GMT-0500 (Central Daylight Time) 627717.7    A              tower       I         r            103              1     1349.7   626368.0       8007   WL         C    1.0
      5      1.716     learn 60000.000000 Wed Sep 18 2024 18:04:18 GMT-0500 (Central Daylight Time) 628084.1    A         towerenter       I     enter            354              1     1716.1   626368.0       8007   WL         C    1.0
      5      2.116     learn 60000.000000 Wed Sep 18 2024 18:04:18 GMT-0500 (Central Daylight Time) 628484.0    A                  w       I         w            380              1      399.6   628084.4       8007   WL         C    2.0
      5      2.233     learn 60000.000000 Wed Sep 18 2024 18:04:18 GMT-0500 (Central Daylight Time) 628600.7    A                 wh       I         h            108              1      516.3   628084.4       8007   WL         C    2.0
      5      2.383     learn 60000.000000 Wed Sep 18 2024 18:04:18 GMT-0500 (Central Daylight Time) 628750.8    A                whe       I         e            135              1      666.4   628084.4       8007   WL         C    2.0
      5      2.549     learn 60000.000000 Wed Sep 18 2024 18:04:18 GMT-0500 (Central Daylight Time) 628917.3    A               when       I         n            161              1      832.9   628084.4       8007   WL         C    2.0
      5      3.432     learn 60000.000000 Wed Sep 18 2024 18:04:18 GMT-0500 (Central Daylight Time) 629800.3    A                whe       I backspace            874              1     1715.9   628084.4       8007   WL         C    2.0
      5      4.149     learn 60000.000000 Wed Sep 18 2024 18:04:18 GMT-0500 (Central Daylight Time) 630516.8    A               whea       I         a            703              1     2432.4   628084.4       8007   WL         C    2.0
      5      4.282     learn 60000.000000 Wed Sep 18 2024 18:04:18 GMT-0500 (Central Daylight Time) 630650.0    A              wheat       I         t            115              1     2565.6   628084.4       8007   WL         C    2.0
      5      4.974     learn 60000.000000 Wed Sep 18 2024 18:04:18 GMT-0500 (Central Daylight Time) 631341.7    A         wheatenter       I     enter            541              1     3257.3   628084.4       8007   WL         C    2.0
      5      5.882     learn 60000.000000 Wed Sep 18 2024 18:04:18 GMT-0500 (Central Daylight Time) 632249.7    A                  s       I         s            890              1      907.6   631342.1       8007   WL         C    3.0
      5      5.948     learn 60000.000000 Wed Sep 18 2024 18:04:18 GMT-0500 (Central Daylight Time) 632316.2    A                 sh       I         h             54              1      974.1   631342.1       8007   WL         C    3.0
      5      6.032     learn 60000.000000 Wed Sep 18 2024 18:04:18 GMT-0500 (Central Daylight Time) 632399.5    A                sho       I         o             75              1     1057.4   631342.1       8007   WL         C    3.0
      5      6.182     learn 60000.000000 Wed Sep 18 2024 18:04:18 GMT-0500 (Central Daylight Time) 632549.4    A               shor       I         r            144              1     1207.3   631342.1       8007   WL         C    3.0
      5      6.298     learn 60000.000000 Wed Sep 18 2024 18:04:18 GMT-0500 (Central Daylight Time) 632666.0    A              shore       I         e            106              1     1323.9   631342.1       8007   WL         C    3.0
      5      6.831     learn 60000.000000 Wed Sep 18 2024 18:04:18 GMT-0500 (Central Daylight Time) 633199.3    A         shoreenter       I     enter            525              1     1857.2   631342.1       8007   WL         C    3.0
      5      7.265     learn 60000.000000 Wed Sep 18 2024 18:04:18 GMT-0500 (Central Daylight Time) 633632.6    A                  b       I         b            424              1      433.0   633199.6       8007   WL         C    4.0
      5      7.365     learn 60000.000000 Wed Sep 18 2024 18:04:18 GMT-0500 (Central Daylight Time) 633732.4    A                 bo       I         o             87              1      532.8   633199.6       8007   WL         C    4.0
      5      7.598     learn 60000.000000 Wed Sep 18 2024 18:04:18 GMT-0500 (Central Daylight Time) 633965.7    A                bod       I         d            219              1      766.1   633199.6       8007   WL         C    4.0
      5      7.748     learn 60000.000000 Wed Sep 18 2024 18:04:18 GMT-0500 (Central Daylight Time) 634115.5    A               body       I         y            130              1      915.9   633199.6       8007   WL         C    4.0
      5      8.148     learn 60000.000000 Wed Sep 18 2024 18:04:18 GMT-0500 (Central Daylight Time) 634515.4    A              bodyh       I         h            388              1     1315.8   633199.6       8007   WL         C    4.0
      5      8.281     learn 60000.000000 Wed Sep 18 2024 18:04:18 GMT-0500 (Central Daylight Time) 634648.9    A             bodyho       I         o            124              1     1449.3   633199.6       8007   WL         C    4.0
      5      8.731     learn 60000.000000 Wed Sep 18 2024 18:04:18 GMT-0500 (Central Daylight Time) 635098.8    A              bodyh       I backspace            438              1     1899.2   633199.6       8007   WL         C    4.0
      5      8.948     learn 60000.000000 Wed Sep 18 2024 18:04:18 GMT-0500 (Central Daylight Time) 635315.4    A               body       I backspace            205              1     2115.8   633199.6       8007   WL         C    4.0
      5      9.714     learn 60000.000000 Wed Sep 18 2024 18:04:18 GMT-0500 (Central Daylight Time) 636081.7    A          bodyenter       I     enter            756              1     2882.1   633199.6       8007   WL         C    4.0
      5     10.714     learn 60000.000000 Wed Sep 18 2024 18:04:18 GMT-0500 (Central Daylight Time) 637081.3    A                  h       I         h            982              1      999.3   636082.0       8007   WL         C    5.0
      5     10.797     learn 60000.000000 Wed Sep 18 2024 18:04:18 GMT-0500 (Central Daylight Time) 637164.7    A                 ho       I         o             70              1     1082.7   636082.0       8007   WL         C    5.0
      5     11.013     learn 60000.000000 Wed Sep 18 2024 18:04:18 GMT-0500 (Central Daylight Time) 637381.2    A                hom       I         m            203              1     1299.2   636082.0       8007   WL         C    5.0
      5     11.231     learn 60000.000000 Wed Sep 18 2024 18:04:18 GMT-0500 (Central Daylight Time) 637598.9    A               home       I         e            211              1     1516.9   636082.0       8007   WL         C    5.0
      5     11.763     learn 60000.000000 Wed Sep 18 2024 18:04:18 GMT-0500 (Central Daylight Time) 638131.0    A          homeenter       I     enter            512              1     2049.0   636082.0       8007   WL         C    5.0
      5     12.530     learn 60000.000000 Wed Sep 18 2024 18:04:18 GMT-0500 (Central Daylight Time) 638897.6    A                  b       I         b            749              1      766.3   638131.3       8007   WL         C    6.0
      5     12.630     learn 60000.000000 Wed Sep 18 2024 18:04:18 GMT-0500 (Central Daylight Time) 638997.3    A                 bo       I         o             86              1      866.0   638131.3       8007   WL         C    6.0
      5     12.846     learn 60000.000000 Wed Sep 18 2024 18:04:18 GMT-0500 (Central Daylight Time) 639214.0    A                boy       I         y            210              1     1082.7   638131.3       8007   WL         C    6.0
      5     13.179     learn 60000.000000 Wed Sep 18 2024 18:04:18 GMT-0500 (Central Daylight Time) 639547.3    A           boyenter       I     enter            322              1     1416.0   638131.3       8007   WL         C    6.0
      5     14.362     learn 60000.000000 Wed Sep 18 2024 18:04:18 GMT-0500 (Central Daylight Time) 640730.2    A                  f       I         f           1164              1     1182.5   639547.7       8007   WL         C    7.0
      5     14.496     learn 60000.000000 Wed Sep 18 2024 18:04:18 GMT-0500 (Central Daylight Time) 640863.6    A                 fq       I         q            126              1     1315.9   639547.7       8007   WL         C    7.0
      5     14.546     learn 60000.000000 Wed Sep 18 2024 18:04:18 GMT-0500 (Central Daylight Time) 640913.6    A                fqu       I         u             40              1     1365.9   639547.7       8007   WL         C    7.0
      5     14.812     learn 60000.000000 Wed Sep 18 2024 18:04:18 GMT-0500 (Central Daylight Time) 641180.0    A               fque       I         e            254              1     1632.3   639547.7       8007   WL         C    7.0
      5     15.262     learn 60000.000000 Wed Sep 18 2024 18:04:18 GMT-0500 (Central Daylight Time) 641629.9    A                fqu       I backspace            444              1     2082.2   639547.7       8007   WL         C    7.0
      5     15.495     learn 60000.000000 Wed Sep 18 2024 18:04:18 GMT-0500 (Central Daylight Time) 641863.2    A                 fq       I backspace            226              1     2315.5   639547.7       8007   WL         C    7.0
      5     15.695     learn 60000.000000 Wed Sep 18 2024 18:04:18 GMT-0500 (Central Daylight Time) 642063.1    A                  f       I backspace            185              1     2515.4   639547.7       8007   WL         C    7.0
      5     15.896     learn 60000.000000 Wed Sep 18 2024 18:04:18 GMT-0500 (Central Daylight Time) 642264.2    A                          I backspace            185              1     2716.5   639547.7       8007   WL         C    7.0
      5     16.278     learn 60000.000000 Wed Sep 18 2024 18:04:18 GMT-0500 (Central Daylight Time) 642646.2    A                  q       I         q            367              1     3098.5   639547.7       8007   WL         C    7.0
      5     16.595     learn 60000.000000 Wed Sep 18 2024 18:04:18 GMT-0500 (Central Daylight Time) 642962.7    A                 qu       I         u            305              1     3415.0   639547.7       8007   WL         C    7.0
      5     16.795     learn 60000.000000 Wed Sep 18 2024 18:04:18 GMT-0500 (Central Daylight Time) 643162.7    A                que       I         e            187              1     3615.0   639547.7       8007   WL         C    7.0
      5     17.012     learn 60000.000000 Wed Sep 18 2024 18:04:18 GMT-0500 (Central Daylight Time) 643379.5    A               quee       I         e            205              1     3831.8   639547.7       8007   WL         C    7.0
      5     17.228     learn 60000.000000 Wed Sep 18 2024 18:04:18 GMT-0500 (Central Daylight Time) 643596.1    A              queen       I         n            196              1     4048.4   639547.7       8007   WL         C    7.0
      5     17.895     learn 60000.000000 Wed Sep 18 2024 18:04:18 GMT-0500 (Central Daylight Time) 644263.3    A         queenenter       I     enter            660              1     4715.6   639547.7       8007   WL         C    7.0
      5     18.278     learn 60000.000000 Wed Sep 18 2024 18:04:18 GMT-0500 (Central Daylight Time) 644645.8    A                  l       I         l            364              1      382.2   644263.6       8007   WL         C    8.0
      5     18.394     learn 60000.000000 Wed Sep 18 2024 18:04:18 GMT-0500 (Central Daylight Time) 644762.2    A                 le       I         e            106              1      498.6   644263.6       8007   WL         C    8.0
      5     18.544     learn 60000.000000 Wed Sep 18 2024 18:04:18 GMT-0500 (Central Daylight Time) 644912.1    A                let       I         t            134              1      648.5   644263.6       8007   WL         C    8.0
      5     18.744     learn 60000.000000 Wed Sep 18 2024 18:04:18 GMT-0500 (Central Daylight Time) 645112.2    A               lett       I         t            192              1      848.6   644263.6       8007   WL         C    8.0
      5     18.844     learn 60000.000000 Wed Sep 18 2024 18:04:18 GMT-0500 (Central Daylight Time) 645212.2    A              lette       I         e             88              1      948.6   644263.6       8007   WL         C    8.0
      5     18.994     learn 60000.000000 Wed Sep 18 2024 18:04:18 GMT-0500 (Central Daylight Time) 645362.0    A             letter       I         r            132              1     1098.4   644263.6       8007   WL         C    8.0
      5     19.144     learn 60000.000000 Wed Sep 18 2024 18:04:18 GMT-0500 (Central Daylight Time) 645512.1    A        letterenter       I     enter            133              1     1248.5   644263.6       8007   WL         C    8.0
      5     19.477     learn 60000.000000 Wed Sep 18 2024 18:04:18 GMT-0500 (Central Daylight Time) 645845.3    A                  f       I         f            319              1      332.9   645512.4       8007   WL         C    9.0
      5     19.661     learn 60000.000000 Wed Sep 18 2024 18:04:18 GMT-0500 (Central Daylight Time) 646028.4    A                 fl       I         l            177              1      516.0   645512.4       8007   WL         C    9.0
      5     19.811     learn 60000.000000 Wed Sep 18 2024 18:04:18 GMT-0500 (Central Daylight Time) 646178.5    A                fla       I         a            132              1      666.1   645512.4       8007   WL         C    9.0
      5     20.210     learn 60000.000000 Wed Sep 18 2024 18:04:18 GMT-0500 (Central Daylight Time) 646578.3    A               flag       I         g            381              1     1065.9   645512.4       8007   WL         C    9.0
      5     20.511     learn 60000.000000 Wed Sep 18 2024 18:04:18 GMT-0500 (Central Daylight Time) 646878.4    A          flagenter       I     enter            293              1     1366.0   645512.4       8007   WL         C    9.0
      5     24.392     learn 60000.000000 Wed Sep 18 2024 18:04:18 GMT-0500 (Central Daylight Time) 650760.2    A                  q       I         q           3873              1     3881.5   646878.7       8007   WL         C   10.0
      5     24.493     learn 60000.000000 Wed Sep 18 2024 18:04:18 GMT-0500 (Central Daylight Time) 650860.3    A                 qu       I         u             88              1     3981.6   646878.7       8007   WL         C   10.0
      5     24.659     learn 60000.000000 Wed Sep 18 2024 18:04:18 GMT-0500 (Central Daylight Time) 651027.1    A                que       I         e            146              1     4148.4   646878.7       8007   WL         C   10.0
      5     24.876     learn 60000.000000 Wed Sep 18 2024 18:04:18 GMT-0500 (Central Daylight Time) 651243.7    A               quee       I         e            204              1     4365.0   646878.7       8007   WL         C   10.0
      5     25.076     learn 60000.000000 Wed Sep 18 2024 18:04:18 GMT-0500 (Central Daylight Time) 651443.5    A              queen       I         n            188              1     4564.8   646878.7       8007   WL         C   10.0
      5     25.359     learn 60000.000000 Wed Sep 18 2024 18:04:18 GMT-0500 (Central Daylight Time) 651726.9    A         queenenter       I     enter            276              1     4848.2   646878.7       8007   WL         C   10.0
      5     28.075     learn 60000.000000 Wed Sep 18 2024 18:04:18 GMT-0500 (Central Daylight Time) 654442.7    A                  c       I         c           2705              1     2715.5   651727.2       8007   WL         C   11.0
      5     28.191     learn 60000.000000 Wed Sep 18 2024 18:04:18 GMT-0500 (Central Daylight Time) 654559.1    A                 ca       I         a            109              1     2831.9   651727.2       8007   WL         C   11.0
      5     28.374     learn 60000.000000 Wed Sep 18 2024 18:04:18 GMT-0500 (Central Daylight Time) 654742.2    A                cam       I         m            178              1     3015.0   651727.2       8007   WL         C   11.0
      5     28.522     learn 60000.000000 Wed Sep 18 2024 18:04:18 GMT-0500 (Central Daylight Time) 654889.5    A               camp       I         p            142              1     3162.3   651727.2       8007   WL         C   11.0
      5     28.774     learn 60000.000000 Wed Sep 18 2024 18:04:18 GMT-0500 (Central Daylight Time) 655142.0    A          campenter       I     enter            237              1     3414.8   651727.2       8007   WL         C   11.0
      5     35.372     learn 60000.000000 Wed Sep 18 2024 18:04:18 GMT-0500 (Central Daylight Time) 661740.2    A                  c       I         c           6586              1     6597.9   655142.3       8007   WL         C   12.0
      5     35.572     learn 60000.000000 Wed Sep 18 2024 18:04:18 GMT-0500 (Central Daylight Time) 661940.0    A                 ca       I         a            187              1     6797.7   655142.3       8007   WL         C   12.0
      5     35.722     learn 60000.000000 Wed Sep 18 2024 18:04:18 GMT-0500 (Central Daylight Time) 662090.3    A                cat       I         t            131              1     6948.0   655142.3       8007   WL         C   12.0
      5     35.939     learn 60000.000000 Wed Sep 18 2024 18:04:18 GMT-0500 (Central Daylight Time) 662306.8    A               catt       I         t            198              1     7164.5   655142.3       8007   WL         C   12.0
      5     36.089     learn 60000.000000 Wed Sep 18 2024 18:04:18 GMT-0500 (Central Daylight Time) 662456.8    A              cattl       I         l            133              1     7314.5   655142.3       8007   WL         C   12.0
      5     36.255     learn 60000.000000 Wed Sep 18 2024 18:04:18 GMT-0500 (Central Daylight Time) 662623.4    A             cattle       I         e            151              1     7481.1   655142.3       8007   WL         C   12.0
      5     36.455     learn 60000.000000 Wed Sep 18 2024 18:04:18 GMT-0500 (Central Daylight Time) 662823.2    A        cattleenter       I     enter            192              1     7680.9   655142.3       8007   WL         C   12.0
      5     41.420     learn 60000.000000 Wed Sep 18 2024 18:04:18 GMT-0500 (Central Daylight Time) 667788.5    A              enter       I     enter           4953              1     4965.0   662823.5       8007   WL         C   13.0
      5     41.737     learn 60000.000000 Wed Sep 18 2024 18:04:18 GMT-0500 (Central Daylight Time) 668104.9    A              enter       I     enter            298              1      316.1   667788.8       8007   WL         C   14.0
      5     42.770     learn 60000.000000 Wed Sep 18 2024 18:04:18 GMT-0500 (Central Daylight Time) 669138.1    A              enter       I     enter           1022              1     1032.9   668105.2       8007   WL         C   15.0
      6      0.767     distr 59232.999802 Wed Sep 18 2024 18:04:18 GMT-0500 (Central Daylight Time) 735134.1    B                  c       I         c            750              1      766.4   734367.7       8007   WL         C    1.0
      6      0.950     distr 59049.999952 Wed Sep 18 2024 18:04:18 GMT-0500 (Central Daylight Time) 735317.2    B                 ch       I         h            168              1      949.5   734367.7       8007   WL         C    1.0
      6      1.083     distr 58916.999817 Wed Sep 18 2024 18:04:18 GMT-0500 (Central Daylight Time) 735450.5    B                chr       I         r            114              1     1082.8   734367.7       8007   WL         C    1.0
      6      1.183     distr 58816.999912 Wed Sep 18 2024 18:04:18 GMT-0500 (Central Daylight Time) 735550.6    B               chri       I         i             93              1     1182.9   734367.7       8007   WL         C    1.0
      6      1.333     distr 58666.999817 Wed Sep 18 2024 18:04:18 GMT-0500 (Central Daylight Time) 735700.3    B              chris       I         s            137              1     1332.6   734367.7       8007   WL         C    1.0
      6      1.433     distr 58566.999912 Wed Sep 18 2024 18:04:18 GMT-0500 (Central Daylight Time) 735800.4    B             christ       I         t             91              1     1432.7   734367.7       8007   WL         C    1.0
      6      1.833     distr 58166.999817 Wed Sep 18 2024 18:04:18 GMT-0500 (Central Daylight Time) 736200.2    B            christm       I         m            383              1     1832.5   734367.7       8007   WL         C    1.0
      6      2.000     distr 58000.000000 Wed Sep 18 2024 18:04:18 GMT-0500 (Central Daylight Time) 736367.0    B           christma       I         a            160              1     1999.3   734367.7       8007   WL         C    1.0
      6      2.133     distr 57866.999865 Wed Sep 18 2024 18:04:18 GMT-0500 (Central Daylight Time) 736500.4    B          christmas       I         s            113              1     2132.7   734367.7       8007   WL         C    1.0
      6      2.383     distr 57616.999865 Wed Sep 18 2024 18:04:18 GMT-0500 (Central Daylight Time) 736749.9    B     christmasenter       I     enter            243              1     2382.2   734367.7       8007   WL         C    1.0
      6      3.116     distr 56883.999825 Wed Sep 18 2024 18:04:18 GMT-0500 (Central Daylight Time) 737483.5    B                  m       I         m            722              1      733.3   736750.2       8007   WL         C    2.0
      6      3.249     distr 56750.999928 Wed Sep 18 2024 18:04:18 GMT-0500 (Central Daylight Time) 737616.6    B                 mo       I         o            116              1      866.4   736750.2       8007   WL         C    2.0
      6      3.383     distr 56616.999865 Wed Sep 18 2024 18:04:18 GMT-0500 (Central Daylight Time) 737750.4    B                mon       I         n            119              1     1000.2   736750.2       8007   WL         C    2.0
      6      3.484     distr 56515.999794 Wed Sep 18 2024 18:04:18 GMT-0500 (Central Daylight Time) 737850.9    B               mone       I         e             89              1     1100.7   736750.2       8007   WL         C    2.0
      6      3.716     distr 56283.999920 Wed Sep 18 2024 18:04:18 GMT-0500 (Central Daylight Time) 738083.0    B              money       I         y            221              1     1332.8   736750.2       8007   WL         C    2.0
      6      4.082     distr 55917.999983 Wed Sep 18 2024 18:04:18 GMT-0500 (Central Daylight Time) 738449.7    B         moneyenter       I     enter            349              1     1699.5   736750.2       8007   WL         C    2.0
      6      6.298     distr 53701.999903 Wed Sep 18 2024 18:04:18 GMT-0500 (Central Daylight Time) 740665.7    B                  p       I         p           2206              1     2215.8   738449.9       8007   WL         C    3.0
      6      6.548     distr 53451.999903 Wed Sep 18 2024 18:04:18 GMT-0500 (Central Daylight Time) 740915.3    B                 pl       I         l            230              1     2465.4   738449.9       8007   WL         C    3.0
      6      6.665     distr 53334.999800 Wed Sep 18 2024 18:04:18 GMT-0500 (Central Daylight Time) 741032.2    B                pla       I         a            108              1     2582.3   738449.9       8007   WL         C    3.0
      6      6.831     distr 53168.999910 Wed Sep 18 2024 18:04:18 GMT-0500 (Central Daylight Time) 741198.8    B               plan       I         n            152              1     2748.9   738449.9       8007   WL         C    3.0
      6      7.065     distr 52934.999943 Wed Sep 18 2024 18:04:18 GMT-0500 (Central Daylight Time) 741431.8    B              plant       I         t            225              1     2981.9   738449.9       8007   WL         C    3.0
      6      7.348     distr 52651.999950 Wed Sep 18 2024 18:04:18 GMT-0500 (Central Daylight Time) 741715.3    B         plantenter       I     enter            272              1     3265.4   738449.9       8007   WL         C    3.0
      6     10.364     distr 49635.999918 Wed Sep 18 2024 18:04:18 GMT-0500 (Central Daylight Time) 744730.9    B                  w       I         w           3004              1     3015.3   741715.6       8007   WL         C    4.0
      6     10.464     distr 49536.000013 Wed Sep 18 2024 18:04:18 GMT-0500 (Central Daylight Time) 744831.0    B                 wi       I         i             93              1     3115.4   741715.6       8007   WL         C    4.0
      6     10.597     distr 49402.999878 Wed Sep 18 2024 18:04:18 GMT-0500 (Central Daylight Time) 744964.1    B                win       I         n            121              1     3248.5   741715.6       8007   WL         C    4.0
      6     10.730     distr 49269.999981 Wed Sep 18 2024 18:04:18 GMT-0500 (Central Daylight Time) 745097.5    B               wint       I         t            124              1     3381.9   741715.6       8007   WL         C    4.0
      6     10.947     distr 49052.999973 Wed Sep 18 2024 18:04:18 GMT-0500 (Central Daylight Time) 745314.1    B              winte       I         e            206              1     3598.5   741715.6       8007   WL         C    4.0
      6     11.030     distr 48969.999790 Wed Sep 18 2024 18:04:18 GMT-0500 (Central Daylight Time) 745397.4    B             winter       I         r             77              1     3681.8   741715.6       8007   WL         C    4.0
      6     11.230     distr 48769.999981 Wed Sep 18 2024 18:04:18 GMT-0500 (Central Daylight Time) 745597.3    B        winterenter       I     enter            186              1     3881.7   741715.6       8007   WL         C    4.0
      6     19.661     distr 40338.999987 Wed Sep 18 2024 18:04:18 GMT-0500 (Central Daylight Time) 754028.4    B              enter       I     enter           8411              1     8430.8   745597.6       8007   WL         C    5.0
      6     19.961     distr 40038.999796 Wed Sep 18 2024 18:04:18 GMT-0500 (Central Daylight Time) 754327.8    B              enter       I     enter            290              1      299.0   754028.8       8007   WL         C    6.0
      6     20.277     distr 39722.999811 Wed Sep 18 2024 18:04:18 GMT-0500 (Central Daylight Time) 754644.6    B              enter       I     enter            304              1      316.5   754328.1       8007   WL         C    7.0
      6     20.527     distr 39472.999811 Wed Sep 18 2024 18:04:18 GMT-0500 (Central Daylight Time) 754894.4    B              enter       I     enter            243              1      249.4   754645.0       8007   WL         C    8.0
      6     20.794     distr 39205.999851 Wed Sep 18 2024 18:04:18 GMT-0500 (Central Daylight Time) 755160.9    B              enter       I     enter            249              1      266.1   754894.8       8007   WL         C    9.0
      6     20.994     distr 39005.999804 Wed Sep 18 2024 18:04:18 GMT-0500 (Central Daylight Time) 755360.8    B              enter       I     enter            191              1      199.6   755161.2       8007   WL         C   10.0
      6     21.210     distr 38789.999962 Wed Sep 18 2024 18:04:18 GMT-0500 (Central Daylight Time) 755577.5    B              enter       I     enter            207              1      216.3   755361.2       8007   WL         C   11.0
      6     21.410     distr 38589.999914 Wed Sep 18 2024 18:04:18 GMT-0500 (Central Daylight Time) 755777.7    B              enter       I     enter            190              1      199.9   755577.8       8007   WL         C   12.0
      6     21.643     distr 38356.999874 Wed Sep 18 2024 18:04:18 GMT-0500 (Central Daylight Time) 756010.7    B              enter       I     enter            211              1      232.6   755778.1       8007   WL         C   13.0
      6     22.226     distr 37773.999929 Wed Sep 18 2024 18:04:18 GMT-0500 (Central Daylight Time) 756593.6    B              enter       I     enter            573              1      582.6   756011.0       8007   WL         C   14.0
      6     22.726     distr 37273.999929 Wed Sep 18 2024 18:04:18 GMT-0500 (Central Daylight Time) 757093.7    B              enter       I     enter            486              1      499.7   756594.0       8007   WL         C   15.0
      7      6.048     immed 53951.999903 Wed Sep 18 2024 18:04:18 GMT-0500 (Central Daylight Time) 764191.5    A                  t       I         t           6033              1     6047.9   758143.6       8007   WL         C    1.0
      7      6.215     immed 53784.999847 Wed Sep 18 2024 18:04:18 GMT-0500 (Central Daylight Time) 764358.1    A                 to       I         o            160              1     6214.5   758143.6       8007   WL         C    1.0
      7      6.348     immed 53651.999950 Wed Sep 18 2024 18:04:18 GMT-0500 (Central Daylight Time) 764491.5    A                tow       I         w            122              1     6347.9   758143.6       8007   WL         C    1.0
      7      6.548     immed 53451.999903 Wed Sep 18 2024 18:04:18 GMT-0500 (Central Daylight Time) 764691.6    A               towe       I         e            179              1     6548.0   758143.6       8007   WL         C    1.0
