acc_sum,block,block_c,change,condition,correct,correct_response,datetime,endtime,face,project,response,response_time,row_sel,session_number,start_end,starttime,subject_id,task,task_vers,trial
0,prac,1,,1-Back,,,Thu Sep 26 2024 16:13:38 GMT-0500 (Central Daylight Time),,005_o_f_d_a.png,O,space,17235,1,1,,,9999,VNB,B,0
0,prac,1,0.0,1-Back,0,m,Thu Sep 26 2024 16:13:38 GMT-0500 (Central Daylight Time),287717.5999999996,020_y_f_n_a.png,O,None,2014,2,1,2875.2999999998137,284842.2999999998,9999,VNB,B,1
1,prac,1,0.0,1-Back,1,m,Thu Sep 26 2024 16:13:38 GMT-0500 (Central Daylight Time),288617.5999999996,007_m_m_h_a.png,O,m,0,3,1,893.6999999992549,287723.9000000004,9999,VNB,B,2
1,prac,1,0.0,1-Back,0,m,Thu Sep 26 2024 16:13:38 GMT-0500 (Central Daylight Time),291533.2000000002,016_y_m_d_a.png,O,None,2014,4,1,2909.2999999998137,288623.9000000004,9999,VNB,B,3
2,prac,1,0.0,1-Back,1,m,Thu Sep 26 2024 16:13:38 GMT-0500 (Central Daylight Time),294349.0999999996,005_o_f_n_a.png,O,m,1952,5,1,2810.399999999441,291538.7000000002,9999,VNB,B,4
3,prac,1,1.0,1-Back,1,z,Thu Sep 26 2024 16:13:38 GMT-0500 (Central Daylight Time),296981.7000000002,016_y_m_n_a.png,O,z,1732,6,1,2626.5,294355.2000000002,9999,VNB,B,5
4,prac,1,0.0,1-Back,1,m,Thu Sep 26 2024 16:13:38 GMT-0500 (Central Daylight Time),299498.7000000002,004_o_m_h_a.png,O,m,1655,7,1,2511.2999999998137,296987.4000000004,9999,VNB,B,6
4,prac,1,0.0,1-Back,0,m,Thu Sep 26 2024 16:13:38 GMT-0500 (Central Daylight Time),301663.5999999996,011_m_f_d_a.png,O,z,1279,8,1,2159.0999999996275,299504.5,9999,VNB,B,7
4,prac,1,1.0,1-Back,0,z,Thu Sep 26 2024 16:13:38 GMT-0500 (Central Daylight Time),304545.7000000002,020_y_f_d_a.png,O,None,2001,9,1,2876.2000000001863,301669.5,9999,VNB,B,8
5,prac,1,0.0,1-Back,1,m,Thu Sep 26 2024 16:13:38 GMT-0500 (Central Daylight Time),307246.0,007_m_m_n_a.png,O,m,1802,10,1,2694.5,304551.5,9999,VNB,B,9
5,prac,1,0.0,1-Back,0,m,Thu Sep 26 2024 16:13:38 GMT-0500 (Central Daylight Time),309527.7999999998,005_o_f_h_a.png,O,z,1394,11,1,2275.7999999998137,307252.0,9999,VNB,B,10
5,prac,1,0.0,1-Back,0,m,Thu Sep 26 2024 16:13:38 GMT-0500 (Central Daylight Time),312426.7000000002,016_y_m_d_a.png,O,None,2011,12,1,2893.2999999998137,309533.4000000004,9999,VNB,B,11
0,test,1,0.0,1-Back,,,Thu Sep 26 2024 16:13:38 GMT-0500 (Central Daylight Time),312426.7000000002,020_y_f_d_a.png,O,space,16309,1,1,2893.2999999998137,309533.4000000004,9999,VNB,B,0
1,test,1,0.0,1-Back,1,m,Thu Sep 26 2024 16:13:38 GMT-0500 (Central Daylight Time),358362.0999999996,011_m_f_n_a.png,O,m,1832,2,1,2878.199999999255,355483.9000000004,9999,VNB,B,1
2,test,1,0.0,1-Back,1,m,Thu Sep 26 2024 16:13:38 GMT-0500 (Central Daylight Time),360994.7999999998,004_o_m_h_a.png,O,m,1574,3,1,2628.2000000001863,358366.5999999996,9999,VNB,B,2
3,test,1,1.0,1-Back,1,z,Thu Sep 26 2024 16:13:38 GMT-0500 (Central Daylight Time),363077.7000000002,007_m_m_h_a.png,O,z,1021,4,1,2079.0,360998.7000000002,9999,VNB,B,3
4,test,1,0.0,1-Back,1,m,Thu Sep 26 2024 16:13:38 GMT-0500 (Central Daylight Time),365176.9000000004,005_o_f_n_a.png,O,m,1036,5,1,2095.4000000003725,363081.5,9999,VNB,B,4
5,test,1,0.0,1-Back,1,m,Thu Sep 26 2024 16:13:38 GMT-0500 (Central Daylight Time),367759.4000000004,016_y_m_d_a.png,O,m,1519,6,1,2579.2000000001863,365180.2000000002,9999,VNB,B,5
6,test,1,1.0,1-Back,1,z,Thu Sep 26 2024 16:13:38 GMT-0500 (Central Daylight Time),370058.4000000004,011_m_f_d_a.png,O,z,1249,7,1,2295.100000000559,367763.2999999998,9999,VNB,B,6
7,test,1,0.0,1-Back,1,m,Thu Sep 26 2024 16:13:38 GMT-0500 (Central Daylight Time),372274.2999999998,020_y_f_h_a.png,O,m,1165,8,1,2212.2000000001863,370062.0999999996,9999,VNB,B,7
8,test,1,0.0,1-Back,1,m,Thu Sep 26 2024 16:13:38 GMT-0500 (Central Daylight Time),374874.0,004_o_m_n_a.png,O,m,1549,9,1,2596.2000000001863,372277.7999999998,9999,VNB,B,8
9,test,1,0.0,1-Back,1,m,Thu Sep 26 2024 16:13:38 GMT-0500 (Central Daylight Time),377256.0999999996,016_y_m_h_a.png,O,m,1327,10,1,2378.0999999996275,374878.0,9999,VNB,B,9
10,test,1,0.0,1-Back,1,m,Thu Sep 26 2024 16:13:38 GMT-0500 (Central Daylight Time),379638.7999999998,004_o_m_d_a.png,O,m,1320,11,1,2378.7999999998137,377260.0,9999,VNB,B,10
11,test,1,1.0,1-Back,1,z,Thu Sep 26 2024 16:13:38 GMT-0500 (Central Daylight Time),381688.2000000002,005_o_f_d_a.png,O,z,993,12,1,2045.7000000001863,379642.5,9999,VNB,B,11
12,test,1,0.0,1-Back,1,m,Thu Sep 26 2024 16:13:38 GMT-0500 (Central Daylight Time),384304.0,007_m_m_n_a.png,O,m,1552,13,1,2612.2999999998137,381691.7000000002,9999,VNB,B,12
13,test,1,1.0,1-Back,1,z,Thu Sep 26 2024 16:13:38 GMT-0500 (Central Daylight Time),386586.5999999996,020_y_f_n_a.png,O,z,1224,14,1,2278.699999999255,384307.9000000004,9999,VNB,B,13
14,test,1,0.0,1-Back,1,m,Thu Sep 26 2024 16:13:38 GMT-0500 (Central Daylight Time),389585.7000000002,011_m_f_h_a.png,O,m,1914,15,1,2995.4000000003725,386590.2999999998,9999,VNB,B,14
14,test,1,0.0,1-Back,0,m,Thu Sep 26 2024 16:13:38 GMT-0500 (Central Daylight Time),392218.4000000004,007_m_m_d_a.png,O,z,1574,16,1,2628.600000000559,389589.7999999998,9999,VNB,B,15
14,test,1,0.0,1-Back,0,m,Thu Sep 26 2024 16:13:38 GMT-0500 (Central Daylight Time),395284.2000000002,016_y_m_n_a.png,O,None,2016,17,1,3061.7999999998137,392222.4000000004,9999,VNB,B,16
15,test,1,0.0,1-Back,1,m,Thu Sep 26 2024 16:13:38 GMT-0500 (Central Daylight Time),397716.5999999996,005_o_f_h_a.png,O,m,1372,18,1,2428.199999999255,395288.4000000004,9999,VNB,B,17
0,test,2,0.0,1-Back,,,Thu Sep 26 2024 16:13:38 GMT-0500 (Central Daylight Time),397716.5999999996,016_y_m_n_a.png,O,space,1493,1,1,2428.199999999255,395288.4000000004,9999,VNB,B,0
1,test,2,0.0,1-Back,1,m,Thu Sep 26 2024 16:13:38 GMT-0500 (Central Daylight Time),403164.7000000002,020_y_f_h_a.png,O,m,912,2,1,1927.7000000001863,401237.0,9999,VNB,B,1
1,test,2,1.0,1-Back,0,m,Thu Sep 26 2024 16:13:38 GMT-0500 (Central Daylight Time),405280.7999999998,004_o_m_n_a.png,O,z,1084,3,1,2112.0999999996275,403168.7000000002,9999,VNB,B,2
1,test,2,0.0,1-Back,0,m,Thu Sep 26 2024 16:13:38 GMT-0500 (Central Daylight Time),408047.9000000004,011_m_f_d_a.png,O,z,1744,4,1,2763.0,405284.9000000004,9999,VNB,B,3
2,test,2,0.0,1-Back,1,z,Thu Sep 26 2024 16:13:38 GMT-0500 (Central Daylight Time),411012.5,007_m_m_d_a.png,O,z,1939,5,1,2960.5,408052.0,9999,VNB,B,4
3,test,2,0.0,1-Back,1,m,Thu Sep 26 2024 16:13:38 GMT-0500 (Central Daylight Time),412861.7000000002,016_y_m_h_a.png,O,m,829,6,1,1845.2000000001863,411016.5,9999,VNB,B,5
3,test,2,1.0,1-Back,0,z,Thu Sep 26 2024 16:13:38 GMT-0500 (Central Daylight Time),414711.2000000002,005_o_f_h_a.png,O,m,820,7,1,1844.5,412866.7000000002,9999,VNB,B,6
4,test,2,0.0,1-Back,1,m,Thu Sep 26 2024 16:13:38 GMT-0500 (Central Daylight Time),417593.7000000002,011_m_f_n_a.png,O,m,1850,8,1,2879.2000000001863,414714.5,9999,VNB,B,7
4,test,2,0.0,1-Back,0,m,Thu Sep 26 2024 16:13:38 GMT-0500 (Central Daylight Time),419676.5,020_y_f_d_a.png,O,z,1064,9,1,2079.0,417597.5,9999,VNB,B,8
4,test,2,0.0,1-Back,0,m,Thu Sep 26 2024 16:13:38 GMT-0500 (Central Daylight Time),422708.7000000002,007_m_m_n_a.png,O,None,2016,10,1,3028.2000000001863,419680.5,9999,VNB,B,9
4,test,2,1.0,1-Back,0,m,Thu Sep 26 2024 16:13:38 GMT-0500 (Central Daylight Time),425741.0999999996,011_m_f_h_a.png,O,None,2016,11,1,3028.5,422712.5999999996,9999,VNB,B,10
4,test,2,0.0,1-Back,0,z,Thu Sep 26 2024 16:13:38 GMT-0500 (Central Daylight Time),428773.7999999998,004_o_m_h_a.png,O,None,2016,12,1,3028.5,425745.2999999998,9999,VNB,B,11
4,test,2,0.0,1-Back,0,m,Thu Sep 26 2024 16:13:38 GMT-0500 (Central Daylight Time),431839.2000000002,016_y_m_d_a.png,O,None,2015,13,1,3062.2999999998137,428776.9000000004,9999,VNB,B,12
4,test,2,0.0,1-Back,0,m,Thu Sep 26 2024 16:13:38 GMT-0500 (Central Daylight Time),434890.0999999996,005_o_f_n_a.png,O,None,2001,14,1,3046.699999999255,431843.4000000004,9999,VNB,B,13
4,test,2,0.0,1-Back,0,z,Thu Sep 26 2024 16:13:38 GMT-0500 (Central Daylight Time),437970.7999999998,020_y_f_n_a.png,O,None,2016,15,1,3076.5,434894.2999999998,9999,VNB,B,14
5,test,2,1.0,1-Back,1,m,Thu Sep 26 2024 16:13:38 GMT-0500 (Central Daylight Time),440353.0999999996,007_m_m_h_a.png,O,m,1325,16,1,2378.199999999255,437974.9000000004,9999,VNB,B,15
5,test,2,0.0,1-Back,0,m,Thu Sep 26 2024 16:13:38 GMT-0500 (Central Daylight Time),442585.7999999998,005_o_f_d_a.png,O,z,1175,17,1,2228.899999999441,440356.9000000004,9999,VNB,B,16
6,test,2,1.0,1-Back,1,z,Thu Sep 26 2024 16:13:38 GMT-0500 (Central Daylight Time),445118.5,004_o_m_d_a.png,O,z,1469,18,1,2528.7000000001863,442589.7999999998,9999,VNB,B,17
0,test,3,1.0,1-Back,,,Thu Sep 26 2024 16:13:38 GMT-0500 (Central Daylight Time),445118.5,005_o_f_h_a.png,O,space,1147,1,1,2528.7000000001863,442589.7999999998,9999,VNB,B,0
1,test,3,0.0,1-Back,1,m,Thu Sep 26 2024 16:13:38 GMT-0500 (Central Daylight Time),451249.7000000002,011_m_f_d_a.png,O,m,1800,2,1,2861.7000000001863,448388.0,9999,VNB,B,1
1,test,3,1.0,1-Back,0,m,Thu Sep 26 2024 16:13:38 GMT-0500 (Central Daylight Time),454082.0999999996,007_m_m_n_a.png,O,z,1782,3,1,2828.2999999998137,451253.7999999998,9999,VNB,B,2
1,test,3,0.0,1-Back,0,z,Thu Sep 26 2024 16:13:38 GMT-0500 (Central Daylight Time),456714.7000000002,005_o_f_n_a.png,O,m,1574,4,1,2628.7000000001863,454086.0,9999,VNB,B,3
1,test,3,1.0,1-Back,0,m,Thu Sep 26 2024 16:13:38 GMT-0500 (Central Daylight Time),459415.0999999996,004_o_m_d_a.png,O,z,1637,5,1,2696.2999999998137,456718.7999999998,9999,VNB,B,4
2,test,3,0.0,1-Back,1,m,Thu Sep 26 2024 16:13:38 GMT-0500 (Central Daylight Time),461346.5999999996,020_y_f_h_a.png,O,m,857,6,1,1927.5,459419.0999999996,9999,VNB,B,5
3,test,3,0.0,1-Back,1,z,Thu Sep 26 2024 16:13:38 GMT-0500 (Central Daylight Time),463597.0,016_y_m_h_a.png,O,z,1197,7,1,2246.5,461350.5,9999,VNB,B,6
4,test,3,0.0,1-Back,1,m,Thu Sep 26 2024 16:13:38 GMT-0500 (Central Daylight Time),465845.4000000004,011_m_f_n_a.png,O,m,1188,8,1,2244.600000000559,463600.7999999998,9999,VNB,B,7
4,test,3,0.0,1-Back,0,m,Thu Sep 26 2024 16:13:38 GMT-0500 (Central Daylight Time),468129.0,020_y_f_d_a.png,O,z,1219,9,1,2279.7999999998137,465849.2000000002,9999,VNB,B,8
4,test,3,1.0,1-Back,0,m,Thu Sep 26 2024 16:13:38 GMT-0500 (Central Daylight Time),471193.5999999996,004_o_m_n_a.png,O,None,2016,10,1,3060.0999999996275,468133.5,9999,VNB,B,9
4,test,3,0.0,1-Back,0,m,Thu Sep 26 2024 16:13:38 GMT-0500 (Central Daylight Time),473492.7999999998,007_m_m_h_a.png,O,z,1246,11,1,2295.899999999441,471196.9000000004,9999,VNB,B,10
5,test,3,0.0,1-Back,1,z,Thu Sep 26 2024 16:13:38 GMT-0500 (Central Daylight Time),475559.9000000004,011_m_f_h_a.png,O,z,1003,12,1,2063.300000000745,473496.5999999996,9999,VNB,B,11
6,test,3,1.0,1-Back,1,m,Thu Sep 26 2024 16:13:38 GMT-0500 (Central Daylight Time),478024.7999999998,005_o_f_d_a.png,O,m,1409,13,1,2461.0,475563.7999999998,9999,VNB,B,12
7,test,3,0.0,1-Back,1,z,Thu Sep 26 2024 16:13:38 GMT-0500 (Central Daylight Time),480673.9000000004,007_m_m_d_a.png,O,z,1591,14,1,2645.0,478028.9000000004,9999,VNB,B,13
8,test,3,0.0,1-Back,1,m,Thu Sep 26 2024 16:13:38 GMT-0500 (Central Daylight Time),483489.7999999998,016_y_m_n_a.png,O,m,1764,15,1,2811.7999999998137,480678.0,9999,VNB,B,14
9,test,3,1.0,1-Back,1,m,Thu Sep 26 2024 16:13:38 GMT-0500 (Central Daylight Time),485705.7999999998,004_o_m_h_a.png,O,m,1150,16,1,2212.0999999996275,483493.7000000002,9999,VNB,B,15
9,test,3,0.0,1-Back,0,m,Thu Sep 26 2024 16:13:38 GMT-0500 (Central Daylight Time),488138.0999999996,016_y_m_d_a.png,O,z,1374,17,1,2429.0999999996275,485709.0,9999,VNB,B,16
9,test,3,1.0,1-Back,0,m,Thu Sep 26 2024 16:13:38 GMT-0500 (Central Daylight Time),491204.0,020_y_f_n_a.png,O,None,2016,18,1,3062.0999999996275,488141.9000000004,9999,VNB,B,17
0,test,4,1.0,1-Back,,,Thu Sep 26 2024 16:13:38 GMT-0500 (Central Daylight Time),491204.0,007_m_m_d_a.png,O,space,1189,1,1,3062.0999999996275,488141.9000000004,9999,VNB,B,0
1,test,4,0.0,1-Back,1,z,Thu Sep 26 2024 16:13:38 GMT-0500 (Central Daylight Time),496602.2000000002,004_o_m_d_a.png,O,z,1149,2,1,2178.5,494423.7000000002,9999,VNB,B,1
2,test,4,0.0,1-Back,1,m,Thu Sep 26 2024 16:13:38 GMT-0500 (Central Daylight Time),498551.7000000002,016_y_m_h_a.png,O,m,927,3,1,1945.5,496606.2000000002,9999,VNB,B,2
3,test,4,0.0,1-Back,1,m,Thu Sep 26 2024 16:13:38 GMT-0500 (Central Daylight Time),500800.7999999998,011_m_f_n_a.png,O,m,1226,4,1,2245.399999999441,498555.4000000004,9999,VNB,B,3
4,test,4,1.0,1-Back,1,m,Thu Sep 26 2024 16:13:38 GMT-0500 (Central Daylight Time),502850.2000000002,005_o_f_h_a.png,O,m,1024,5,1,2045.5,500804.7000000002,9999,VNB,B,4
5,test,4,0.0,1-Back,1,m,Thu Sep 26 2024 16:13:38 GMT-0500 (Central Daylight Time),504817.4000000004,007_m_m_n_a.png,O,m,950,6,1,1963.4000000003725,502854.0,9999,VNB,B,5
6,test,4,0.0,1-Back,1,m,Thu Sep 26 2024 16:13:38 GMT-0500 (Central Daylight Time),506915.7999999998,016_y_m_d_a.png,O,m,1072,7,1,2094.2999999998137,504821.5,9999,VNB,B,6
7,test,4,1.0,1-Back,1,z,Thu Sep 26 2024 16:13:38 GMT-0500 (Central Daylight Time),508964.9000000004,020_y_f_d_a.png,O,z,1030,8,1,2044.7000000001863,506920.2000000002,9999,VNB,B,7
8,test,4,0.0,1-Back,1,m,Thu Sep 26 2024 16:13:38 GMT-0500 (Central Daylight Time),510981.0,011_m_f_h_a.png,O,m,955,9,1,2010.9000000003725,508970.0999999996,9999,VNB,B,8
8,test,4,0.0,1-Back,0,z,Thu Sep 26 2024 16:13:38 GMT-0500 (Central Daylight Time),513613.5999999996,004_o_m_h_a.png,O,m,1579,10,1,2628.899999999441,510984.7000000002,9999,VNB,B,9
8,test,4,1.0,1-Back,0,m,Thu Sep 26 2024 16:13:38 GMT-0500 (Central Daylight Time),516679.4000000004,005_o_f_n_a.png,O,None,2015,11,1,3061.9000000003725,513617.5,9999,VNB,B,10
8,test,4,0.0,1-Back,0,m,Thu Sep 26 2024 16:13:38 GMT-0500 (Central Daylight Time),519011.7999999998,011_m_f_d_a.png,O,z,1273,12,1,2328.7000000001863,516683.0999999996,9999,VNB,B,11
9,test,4,0.0,1-Back,1,m,Thu Sep 26 2024 16:13:38 GMT-0500 (Central Daylight Time),521078.0999999996,020_y_f_n_a.png,O,m,1004,13,1,2062.5,519015.5999999996,9999,VNB,B,12
9,test,4,0.0,1-Back,0,m,Thu Sep 26 2024 16:13:38 GMT-0500 (Central Daylight Time),523227.0999999996,005_o_f_d_a.png,O,z,1090,14,1,2145.7999999998137,521081.2999999998,9999,VNB,B,13
10,test,4,0.0,1-Back,1,m,Thu Sep 26 2024 16:13:38 GMT-0500 (Central Daylight Time),525426.2999999998,020_y_f_h_a.png,O,m,1132,15,1,2195.0999999996275,523231.2000000002,9999,VNB,B,14
11,test,4,1.0,1-Back,1,z,Thu Sep 26 2024 16:13:38 GMT-0500 (Central Daylight Time),527443.7000000002,007_m_m_h_a.png,O,z,966,16,1,2014.1000000005588,525429.5999999996,9999,VNB,B,15
12,test,4,0.0,1-Back,1,m,Thu Sep 26 2024 16:13:38 GMT-0500 (Central Daylight Time),529442.0999999996,004_o_m_n_a.png,O,m,933,17,1,1994.5999999996275,527447.5,9999,VNB,B,16
13,test,4,1.0,1-Back,1,z,Thu Sep 26 2024 16:13:38 GMT-0500 (Central Daylight Time),531608.2999999998,016_y_m_n_a.png,O,z,1110,18,1,2162.5,529445.7999999998,9999,VNB,B,17
0,test,5,1.0,1-Back,,,Thu Sep 26 2024 16:13:38 GMT-0500 (Central Daylight Time),531608.2999999998,004_o_m_n_a.png,O,space,1168,1,1,2162.5,529445.7999999998,9999,VNB,B,0
1,test,5,1.0,1-Back,1,m,Thu Sep 26 2024 16:13:38 GMT-0500 (Central Daylight Time),536839.7000000002,005_o_f_h_a.png,O,m,1011,2,1,2029.4000000003725,534810.2999999998,9999,VNB,B,1
2,test,5,0.0,1-Back,1,m,Thu Sep 26 2024 16:13:38 GMT-0500 (Central Daylight Time),539188.7000000002,016_y_m_d_a.png,O,m,1322,3,1,2344.5,536844.2000000002,9999,VNB,B,2
3,test,5,0.0,1-Back,1,z,Thu Sep 26 2024 16:13:38 GMT-0500 (Central Daylight Time),541589.4000000004,004_o_m_d_a.png,O,z,1381,4,1,2396.800000000745,539192.5999999996,9999,VNB,B,3
4,test,5,0.0,1-Back,1,m,Thu Sep 26 2024 16:13:38 GMT-0500 (Central Daylight Time),543870.9000000004,011_m_f_h_a.png,O,m,1220,5,1,2277.5,541593.4000000004,9999,VNB,B,4
4,test,5,0.0,1-Back,0,m,Thu Sep 26 2024 16:13:38 GMT-0500 (Central Daylight Time),546936.5,020_y_f_n_a.png,O,None,2015,6,1,3061.5999999996275,543874.9000000004,9999,VNB,B,5
4,test,5,1.0,1-Back,0,z,Thu Sep 26 2024 16:13:38 GMT-0500 (Central Daylight Time),548903.2000000002,005_o_f_n_a.png,O,m,912,7,1,1962.6000000005588,546940.5999999996,9999,VNB,B,6
4,test,5,0.0,1-Back,0,m,Thu Sep 26 2024 16:13:38 GMT-0500 (Central Daylight Time),551185.0,011_m_f_d_a.png,O,z,1225,8,1,2278.0999999996275,548906.9000000004,9999,VNB,B,7
5,test,5,0.0,1-Back,1,m,Thu Sep 26 2024 16:13:38 GMT-0500 (Central Daylight Time),553267.7000000002,016_y_m_h_a.png,O,m,917,9,1,2079.2000000001863,551188.5,9999,VNB,B,8
5,test,5,0.0,1-Back,0,m,Thu Sep 26 2024 16:13:38 GMT-0500 (Central Daylight Time),555850.2000000002,020_y_f_d_a.png,O,z,1532,10,1,2578.5,553271.7000000002,9999,VNB,B,9
6,test,5,0.0,1-Back,1,m,Thu Sep 26 2024 16:13:38 GMT-0500 (Central Daylight Time),557816.2999999998,007_m_m_n_a.png,O,m,910,11,1,1962.5,555853.7999999998,9999,VNB,B,10
7,test,5,1.0,1-Back,1,z,Thu Sep 26 2024 16:13:38 GMT-0500 (Central Daylight Time),560248.9000000004,011_m_f_n_a.png,O,z,1368,12,1,2428.5,557820.4000000004,9999,VNB,B,11
8,test,5,0.0,1-Back,1,m,Thu Sep 26 2024 16:13:38 GMT-0500 (Central Daylight Time),562431.5999999996,004_o_m_h_a.png,O,m,1119,13,1,2179.0,560252.5999999996,9999,VNB,B,12
9,test,5,0.0,1-Back,1,z,Thu Sep 26 2024 16:13:38 GMT-0500 (Central Daylight Time),564314.4000000004,007_m_m_h_a.png,O,z,832,14,1,1878.9000000003725,562435.5,9999,VNB,B,13
10,test,5,1.0,1-Back,1,m,Thu Sep 26 2024 16:13:38 GMT-0500 (Central Daylight Time),566396.9000000004,005_o_f_d_a.png,O,m,1029,15,1,2079.5,564317.4000000004,9999,VNB,B,14
11,test,5,0.0,1-Back,1,m,Thu Sep 26 2024 16:13:38 GMT-0500 (Central Daylight Time),568346.4000000004,016_y_m_n_a.png,O,m,891,16,1,1945.9000000003725,566400.5,9999,VNB,B,15
12,test,5,0.0,1-Back,1,m,Thu Sep 26 2024 16:13:38 GMT-0500 (Central Daylight Time),570447.5,020_y_f_h_a.png,O,m,1046,17,1,2097.0,568350.5,9999,VNB,B,16
13,test,5,0.0,1-Back,1,m,Thu Sep 26 2024 16:13:38 GMT-0500 (Central Daylight Time),572894.7999999998,007_m_m_d_a.png,O,m,1386,18,1,2444.0,570450.7999999998,9999,VNB,B,17
0,prac,1,0.0,2-Back,,,Thu Sep 26 2024 16:13:38 GMT-0500 (Central Daylight Time),572894.7999999998,011_m_f_n_a.png,O,space,32014,1,1,2444.0,570450.7999999998,9999,VNB,B,0
0,prac,1,0.0,2-Back,,,Thu Sep 26 2024 16:13:38 GMT-0500 (Central Daylight Time),572894.7999999998,005_o_f_h_a.png,O,space,32014,2,1,2444.0,570450.7999999998,9999,VNB,B,0
0,prac,1,0.0,2-Back,0,m,Thu Sep 26 2024 16:13:38 GMT-0500 (Central Daylight Time),757037.2000000002,004_o_m_d_a.png,O,None,2006,3,1,2860.0,754177.2000000002,9999,VNB,B,1
0,prac,1,1.0,2-Back,0,z,Thu Sep 26 2024 16:13:38 GMT-0500 (Central Daylight Time),759936.2999999998,007_m_m_h_a.png,O,None,2015,4,1,2894.2000000001863,757042.0999999996,9999,VNB,B,2
1,prac,1,0.0,2-Back,1,m,Thu Sep 26 2024 16:13:38 GMT-0500 (Central Daylight Time),762602.2000000002,020_y_f_n_a.png,O,m,1799,5,1,2660.0,759942.2000000002,9999,VNB,B,3
1,prac,1,1.0,2-Back,0,z,Thu Sep 26 2024 16:13:38 GMT-0500 (Central Daylight Time),765034.7000000002,004_o_m_h_a.png,O,m,1586,6,1,2427.2999999998137,762607.4000000004,9999,VNB,B,4
2,prac,1,1.0,2-Back,1,z,Thu Sep 26 2024 16:13:38 GMT-0500 (Central Daylight Time),767850.5999999996,016_y_m_n_a.png,O,z,1920,7,1,2810.7999999998137,765039.7999999998,9999,VNB,B,5
2,prac,1,0.0,2-Back,0,m,Thu Sep 26 2024 16:13:38 GMT-0500 (Central Daylight Time),770733.0,011_m_f_d_a.png,O,None,2005,8,1,2877.5,767855.5,9999,VNB,B,6
3,prac,1,0.0,2-Back,1,m,Thu Sep 26 2024 16:13:38 GMT-0500 (Central Daylight Time),773231.9000000004,005_o_f_d_a.png,O,m,1612,9,1,2493.800000000745,770738.0999999996,9999,VNB,B,7
3,prac,1,0.0,2-Back,0,m,Thu Sep 26 2024 16:13:38 GMT-0500 (Central Daylight Time),775531.4000000004,007_m_m_h_a.png,O,z,1525,10,1,2294.7000000001863,773236.7000000002,9999,VNB,B,8
4,prac,1,1.0,2-Back,1,z,Thu Sep 26 2024 16:13:38 GMT-0500 (Central Daylight Time),778163.9000000004,020_y_f_d_a.png,O,z,1755,11,1,2627.2000000001863,775536.7000000002,9999,VNB,B,9
5,prac,1,0.0,2-Back,1,m,Thu Sep 26 2024 16:13:38 GMT-0500 (Central Daylight Time),780930.0,004_o_m_n_a.png,O,m,1905,12,1,2760.7999999998137,778169.2000000002,9999,VNB,B,10
0,test,1,0.0,2-Back,,,Thu Sep 26 2024 16:13:38 GMT-0500 (Central Daylight Time),780930.0,016_y_m_h_a.png,O,space,21017,1,1,2760.7999999998137,778169.2000000002,9999,VNB,B,0
0,test,1,0.0,2-Back,,,Thu Sep 26 2024 16:13:38 GMT-0500 (Central Daylight Time),780930.0,005_o_f_n_a.png,O,space,21017,2,1,2760.7999999998137,778169.2000000002,9999,VNB,B,0
1,test,1,0.0,2-Back,1,z,Thu Sep 26 2024 16:13:38 GMT-0500 (Central Daylight Time),844992.9000000004,004_o_m_h_a.png,O,z,1701,3,1,2728.600000000559,842264.2999999998,9999,VNB,B,1
2,test,1,0.0,2-Back,1,m,Thu Sep 26 2024 16:13:38 GMT-0500 (Central Daylight Time),846575.7000000002,011_m_f_d_a.png,O,m,519,4,1,1578.7000000001863,844997.0,9999,VNB,B,2
3,test,1,1.0,2-Back,1,m,Thu Sep 26 2024 16:13:38 GMT-0500 (Central Daylight Time),848258.4000000004,016_y_m_n_a.png,O,m,624,5,1,1679.1000000005588,846579.2999999998,9999,VNB,B,3
3,test,1,0.0,2-Back,0,z,Thu Sep 26 2024 16:13:38 GMT-0500 (Central Daylight Time),850457.7999999998,020_y_f_d_a.png,O,m,1133,6,1,2196.0,848261.7999999998,9999,VNB,B,4
4,test,1,0.0,2-Back,1,m,Thu Sep 26 2024 16:13:38 GMT-0500 (Central Daylight Time),851990.7000000002,007_m_m_h_a.png,O,m,462,7,1,1528.7999999998137,850461.9000000004,9999,VNB,B,5
5,test,1,1.0,2-Back,1,m,Thu Sep 26 2024 16:13:38 GMT-0500 (Central Daylight Time),853540.2000000002,020_y_f_n_a.png,O,m,489,8,1,1545.7000000001863,851994.5,9999,VNB,B,6
5,test,1,0.0,2-Back,0,z,Thu Sep 26 2024 16:13:38 GMT-0500 (Central Daylight Time),855273.0,005_o_f_h_a.png,O,m,676,9,1,1729.2000000001863,853543.7999999998,9999,VNB,B,7
6,test,1,0.0,2-Back,1,m,Thu Sep 26 2024 16:13:38 GMT-0500 (Central Daylight Time),856972.5,004_o_m_d_a.png,O,m,647,10,1,1695.9000000003725,855276.5999999996,9999,VNB,B,8
7,test,1,1.0,2-Back,1,m,Thu Sep 26 2024 16:13:38 GMT-0500 (Central Daylight Time),859255.0,007_m_m_d_a.png,O,m,1220,11,1,2279.0999999996275,856975.9000000004,9999,VNB,B,9
8,test,1,0.0,2-Back,1,m,Thu Sep 26 2024 16:13:38 GMT-0500 (Central Daylight Time),861954.5,011_m_f_n_a.png,O,m,1633,12,1,2695.7000000001863,859258.7999999998,9999,VNB,B,10
9,test,1,0.0,2-Back,1,m,Thu Sep 26 2024 16:13:38 GMT-0500 (Central Daylight Time),864470.0999999996,020_y_f_h_a.png,O,m,1487,13,1,2512.0,861958.0999999996,9999,VNB,B,11
10,test,1,0.0,2-Back,1,z,Thu Sep 26 2024 16:13:38 GMT-0500 (Central Daylight Time),866836.0,007_m_m_n_a.png,O,z,1314,14,1,2362.0999999996275,864473.9000000004,9999,VNB,B,12
11,test,1,0.0,2-Back,1,m,Thu Sep 26 2024 16:13:38 GMT-0500 (Central Daylight Time),868718.9000000004,016_y_m_d_a.png,O,m,861,15,1,1879.0,866839.9000000004,9999,VNB,B,13
11,test,1,1.0,2-Back,0,m,Thu Sep 26 2024 16:13:38 GMT-0500 (Central Daylight Time),870952.2999999998,011_m_f_h_a.png,O,z,1169,16,1,2229.899999999441,868722.4000000004,9999,VNB,B,14
11,test,1,0.0,2-Back,0,z,Thu Sep 26 2024 16:13:38 GMT-0500 (Central Daylight Time),873417.2999999998,005_o_f_d_a.png,O,m,1401,17,1,2461.0,870956.2999999998,9999,VNB,B,15
12,test,1,0.0,2-Back,1,m,Thu Sep 26 2024 16:13:38 GMT-0500 (Central Daylight Time),875516.9000000004,004_o_m_n_a.png,O,m,1072,18,1,2095.7000000001863,873421.2000000002,9999,VNB,B,16
0,test,2,0.0,2-Back,,,Thu Sep 26 2024 16:13:38 GMT-0500 (Central Daylight Time),875516.9000000004,007_m_m_h_a.png,O,space,1485,1,1,2095.7000000001863,873421.2000000002,9999,VNB,B,0
0,test,2,0.0,2-Back,,,Thu Sep 26 2024 16:13:38 GMT-0500 (Central Daylight Time),875516.9000000004,020_y_f_n_a.png,O,space,1485,2,1,2095.7000000001863,873421.2000000002,9999,VNB,B,0
0,test,2,1.0,2-Back,0,z,Thu Sep 26 2024 16:13:38 GMT-0500 (Central Daylight Time),884330.5999999996,005_o_f_h_a.png,O,m,1056,3,1,2077.399999999441,882253.2000000002,9999,VNB,B,1
1,test,2,0.0,2-Back,1,m,Thu Sep 26 2024 16:13:38 GMT-0500 (Central Daylight Time),886912.9000000004,004_o_m_d_a.png,O,m,1559,4,1,2578.5,884334.4000000004,9999,VNB,B,2
1,test,2,0.0,2-Back,0,m,Thu Sep 26 2024 16:13:38 GMT-0500 (Central Daylight Time),889945.5999999996,011_m_f_d_a.png,O,None,2015,5,1,3028.699999999255,886916.9000000004,9999,VNB,B,3
2,test,2,0.0,2-Back,1,m,Thu Sep 26 2024 16:13:38 GMT-0500 (Central Daylight Time),892361.2000000002,016_y_m_h_a.png,O,m,1392,6,1,2411.600000000559,889949.5999999996,9999,VNB,B,4
2,test,2,0.0,2-Back,0,m,Thu Sep 26 2024 16:13:38 GMT-0500 (Central Daylight Time),894694.0,005_o_f_n_a.png,O,z,1312,7,1,2328.9000000003725,892365.0999999996,9999,VNB,B,5
2,test,2,1.0,2-Back,0,z,Thu Sep 26 2024 16:13:38 GMT-0500 (Central Daylight Time),897193.2999999998,004_o_m_h_a.png,O,m,1467,8,1,2495.7000000001863,894697.5999999996,9999,VNB,B,6
2,test,2,0.0,2-Back,0,m,Thu Sep 26 2024 16:13:38 GMT-0500 (Central Daylight Time),899292.5999999996,020_y_f_d_a.png,O,z,1080,9,1,2095.199999999255,897197.4000000004,9999,VNB,B,7
2,test,2,0.0,2-Back,0,m,Thu Sep 26 2024 16:13:38 GMT-0500 (Central Daylight Time),901176.4000000004,016_y_m_d_a.png,O,z,861,10,1,1880.6000000005588,899295.7999999998,9999,VNB,B,8
3,test,2,0.0,2-Back,1,m,Thu Sep 26 2024 16:13:38 GMT-0500 (Central Daylight Time),903491.0999999996,007_m_m_n_a.png,O,m,1298,11,1,2311.399999999441,901179.7000000002,9999,VNB,B,9
4,test,2,0.0,2-Back,1,m,Thu Sep 26 2024 16:13:38 GMT-0500 (Central Daylight Time),906508.2000000002,011_m_f_h_a.png,O,m,1990,12,1,3013.2999999998137,903494.9000000004,9999,VNB,B,10
4,test,2,1.0,2-Back,0,z,Thu Sep 26 2024 16:13:38 GMT-0500 (Central Daylight Time),907656.7000000002,004_o_m_n_a.png,O,m,118,13,1,1144.6000000005588,906512.0999999996,9999,VNB,B,11
5,test,2,0.0,2-Back,1,m,Thu Sep 26 2024 16:13:38 GMT-0500 (Central Daylight Time),909306.0999999996,005_o_f_d_a.png,O,m,617,14,1,1645.5,907660.5999999996,9999,VNB,B,12
6,test,2,0.0,2-Back,1,m,Thu Sep 26 2024 16:13:38 GMT-0500 (Central Daylight Time),911421.9000000004,020_y_f_h_a.png,O,m,1086,15,1,2111.9000000003725,909310.0,9999,VNB,B,13
6,test,2,0.0,2-Back,0,z,Thu Sep 26 2024 16:13:38 GMT-0500 (Central Daylight Time),913371.4000000004,007_m_m_d_a.png,O,m,931,16,1,1945.7000000001863,911425.7000000002,9999,VNB,B,14
7,test,2,0.0,2-Back,1,m,Thu Sep 26 2024 16:13:38 GMT-0500 (Central Daylight Time),915305.4000000004,016_y_m_n_a.png,O,m,902,17,1,1930.1000000005588,913375.2999999998,9999,VNB,B,15
8,test,2,1.0,2-Back,1,m,Thu Sep 26 2024 16:13:38 GMT-0500 (Central Daylight Time),917253.4000000004,011_m_f_n_a.png,O,m,921,18,1,1944.800000000745,915308.5999999996,9999,VNB,B,16
0,test,3,1.0,2-Back,,,Thu Sep 26 2024 16:13:38 GMT-0500 (Central Daylight Time),917253.4000000004,004_o_m_n_a.png,O,space,3356,1,1,1944.800000000745,915308.5999999996,9999,VNB,B,0
0,test,3,1.0,2-Back,,,Thu Sep 26 2024 16:13:38 GMT-0500 (Central Daylight Time),917253.4000000004,005_o_f_d_a.png,O,space,3356,2,1,1944.800000000745,915308.5999999996,9999,VNB,B,0
0,test,3,0.0,2-Back,0,m,Thu Sep 26 2024 16:13:38 GMT-0500 (Central Daylight Time),927833.5,020_y_f_h_a.png,O,z,1134,3,1,2161.7999999998137,925671.7000000002,9999,VNB,B,1
0,test,3,0.0,2-Back,0,z,Thu Sep 26 2024 16:13:38 GMT-0500 (Central Daylight Time),930932.7000000002,011_m_f_d_a.png,O,None,2009,4,1,3095.2000000001863,927837.5,9999,VNB,B,2
1,test,3,1.0,2-Back,1,m,Thu Sep 26 2024 16:13:38 GMT-0500 (Central Daylight Time),932632.0,016_y_m_n_a.png,O,m,669,5,1,1695.5999999996275,930936.4000000004,9999,VNB,B,3
1,test,3,0.0,2-Back,0,m,Thu Sep 26 2024 16:13:38 GMT-0500 (Central Daylight Time),934416.0999999996,004_o_m_h_a.png,O,z,753,6,1,1780.0999999996275,932636.0,9999,VNB,B,4
1,test,3,0.0,2-Back,0,z,Thu Sep 26 2024 16:13:38 GMT-0500 (Central Daylight Time),936197.5999999996,020_y_f_n_a.png,O,m,754,7,1,1777.5,934420.0999999996,9999,VNB,B,5
2,test,3,1.0,2-Back,1,m,Thu Sep 26 2024 16:13:38 GMT-0500 (Central Daylight Time),938446.9000000004,007_m_m_d_a.png,O,m,1228,8,1,2246.0,936200.9000000004,9999,VNB,B,6
3,test,3,0.0,2-Back,1,m,Thu Sep 26 2024 16:13:38 GMT-0500 (Central Daylight Time),941114.0,016_y_m_d_a.png,O,m,1642,9,1,2663.2000000001863,938450.7999999998,9999,VNB,B,7
3,test,3,0.0,2-Back,0,m,Thu Sep 26 2024 16:13:38 GMT-0500 (Central Daylight Time),944145.5,005_o_f_h_a.png,O,None,2016,10,1,3027.5,941118.0,9999,VNB,B,8
3,test,3,1.0,2-Back,0,m,Thu Sep 26 2024 16:13:38 GMT-0500 (Central Daylight Time),947177.5999999996,011_m_f_n_a.png,O,None,2016,11,1,3029.2999999998137,944148.2999999998,9999,VNB,B,9
3,test,3,1.0,2-Back,0,z,Thu Sep 26 2024 16:13:38 GMT-0500 (Central Daylight Time),949260.0999999996,007_m_m_h_a.png,O,m,1056,12,1,2078.5,947181.5999999996,9999,VNB,B,10
3,test,3,0.0,2-Back,0,m,Thu Sep 26 2024 16:13:38 GMT-0500 (Central Daylight Time),951442.7999999998,020_y_f_d_a.png,O,z,1165,13,1,2179.0999999996275,949263.7000000002,9999,VNB,B,11
4,test,3,0.0,2-Back,1,m,Thu Sep 26 2024 16:13:38 GMT-0500 (Central Daylight Time),953342.2000000002,005_o_f_n_a.png,O,m,833,14,1,1896.2999999998137,951445.9000000004,9999,VNB,B,12
4,test,3,0.0,2-Back,0,z,Thu Sep 26 2024 16:13:38 GMT-0500 (Central Daylight Time),955192.4000000004,004_o_m_d_a.png,O,m,819,15,1,1846.300000000745,953346.0999999996,9999,VNB,B,13
5,test,3,1.0,2-Back,1,m,Thu Sep 26 2024 16:13:38 GMT-0500 (Central Daylight Time),956624.7000000002,011_m_f_h_a.png,O,m,402,16,1,1428.7000000001863,955196.0,9999,VNB,B,14
6,test,3,0.0,2-Back,1,m,Thu Sep 26 2024 16:13:38 GMT-0500 (Central Daylight Time),958058.5999999996,007_m_m_n_a.png,O,m,409,17,1,1430.0999999996275,956628.5,9999,VNB,B,15
6,test,3,0.0,2-Back,0,z,Thu Sep 26 2024 16:13:38 GMT-0500 (Central Daylight Time),959423.7000000002,016_y_m_h_a.png,O,m,336,18,1,1360.9000000003725,958062.7999999998,9999,VNB,B,16
0,test,4,0.0,2-Back,,,Thu Sep 26 2024 16:13:38 GMT-0500 (Central Daylight Time),959423.7000000002,011_m_f_n_a.png,O,space,1090,1,1,1360.9000000003725,958062.7999999998,9999,VNB,B,0
0,test,4,0.0,2-Back,,,Thu Sep 26 2024 16:13:38 GMT-0500 (Central Daylight Time),959423.7000000002,004_o_m_n_a.png,O,space,1090,2,1,1360.9000000003725,958062.7999999998,9999,VNB,B,0
1,test,4,1.0,2-Back,1,m,Thu Sep 26 2024 16:13:38 GMT-0500 (Central Daylight Time),967138.0,016_y_m_h_a.png,O,m,367,3,1,1395.7999999998137,965742.2000000002,9999,VNB,B,1
2,test,4,1.0,2-Back,1,m,Thu Sep 26 2024 16:13:38 GMT-0500 (Central Daylight Time),968687.4000000004,005_o_f_d_a.png,O,m,519,4,1,1545.2000000001863,967142.2000000002,9999,VNB,B,2
2,test,4,0.0,2-Back,0,z,Thu Sep 26 2024 16:13:38 GMT-0500 (Central Daylight Time),970203.7000000002,004_o_m_h_a.png,O,m,489,5,1,1512.1000000005588,968691.5999999996,9999,VNB,B,3
3,test,4,0.0,2-Back,1,m,Thu Sep 26 2024 16:13:38 GMT-0500 (Central Daylight Time),971819.2999999998,007_m_m_n_a.png,O,m,598,6,1,1611.8999999994412,970207.4000000004,9999,VNB,B,4
4,test,4,0.0,2-Back,1,m,Thu Sep 26 2024 16:13:38 GMT-0500 (Central Daylight Time),973435.7000000002,011_m_f_d_a.png,O,m,598,7,1,1612.9000000003725,971822.7999999998,9999,VNB,B,5
4,test,4,0.0,2-Back,0,z,Thu Sep 26 2024 16:13:38 GMT-0500 (Central Daylight Time),975202.0999999996,020_y_f_n_a.png,O,m,749,8,1,1763.0,973439.0999999996,9999,VNB,B,6
5,test,4,1.0,2-Back,1,m,Thu Sep 26 2024 16:13:38 GMT-0500 (Central Daylight Time),976601.7000000002,005_o_f_h_a.png,O,m,358,9,1,1396.0,975205.7000000002,9999,VNB,B,7
5,test,4,0.0,2-Back,0,m,Thu Sep 26 2024 16:13:38 GMT-0500 (Central Daylight Time),978217.7000000002,007_m_m_h_a.png,O,z,592,10,1,1612.4000000003725,976605.2999999998,9999,VNB,B,8
6,test,4,0.0,2-Back,1,m,Thu Sep 26 2024 16:13:38 GMT-0500 (Central Daylight Time),979800.7000000002,020_y_f_d_a.png,O,m,559,11,1,1579.4000000003725,978221.2999999998,9999,VNB,B,9
7,test,4,0.0,2-Back,1,m,Thu Sep 26 2024 16:13:38 GMT-0500 (Central Daylight Time),981250.2999999998,016_y_m_n_a.png,O,m,433,12,1,1445.2999999998137,979805.0,9999,VNB,B,10
7,test,4,0.0,2-Back,0,z,Thu Sep 26 2024 16:13:38 GMT-0500 (Central Daylight Time),982699.7000000002,004_o_m_d_a.png,O,m,431,13,1,1445.6000000005588,981254.0999999996,9999,VNB,B,11
8,test,4,1.0,2-Back,1,m,Thu Sep 26 2024 16:13:38 GMT-0500 (Central Daylight Time),984267.0999999996,011_m_f_h_a.png,O,m,534,14,1,1563.7999999998137,982703.2999999998,9999,VNB,B,12
9,test,4,1.0,2-Back,1,m,Thu Sep 26 2024 16:13:38 GMT-0500 (Central Daylight Time),985965.4000000004,020_y_f_h_a.png,O,m,671,15,1,1694.7000000001863,984270.7000000002,9999,VNB,B,13
9,test,4,0.0,2-Back,0,m,Thu Sep 26 2024 16:13:38 GMT-0500 (Central Daylight Time),988097.9000000004,005_o_f_n_a.png,O,z,1108,16,1,2129.0,985968.9000000004,9999,VNB,B,14
9,test,4,0.0,2-Back,0,m,Thu Sep 26 2024 16:13:38 GMT-0500 (Central Daylight Time),989997.2999999998,016_y_m_d_a.png,O,z,870,17,1,1895.3999999994412,988101.9000000004,9999,VNB,B,15
10,test,4,1.0,2-Back,1,m,Thu Sep 26 2024 16:13:38 GMT-0500 (Central Daylight Time),991780.0,007_m_m_d_a.png,O,m,756,18,1,1778.7999999998137,990001.2000000002,9999,VNB,B,16
0,test,5,1.0,2-Back,,,Thu Sep 26 2024 16:13:38 GMT-0500 (Central Daylight Time),991780.0,020_y_f_d_a.png,O,space,4213,1,1,1778.7999999998137,990001.2000000002,9999,VNB,B,0
0,test,5,1.0,2-Back,,,Thu Sep 26 2024 16:13:38 GMT-0500 (Central Daylight Time),991780.0,005_o_f_h_a.png,O,space,4213,2,1,1778.7999999998137,990001.2000000002,9999,VNB,B,0
0,test,5,1.0,2-Back,0,z,Thu Sep 26 2024 16:13:38 GMT-0500 (Central Daylight Time),1003943.0999999996,004_o_m_d_a.png,O,m,1686,3,1,2711.0,1001232.0999999996,9999,VNB,B,1
1,test,5,1.0,2-Back,1,m,Thu Sep 26 2024 16:13:38 GMT-0500 (Central Daylight Time),1006192.2999999998,011_m_f_n_a.png,O,m,1218,4,1,2245.399999999441,1003946.9000000004,9999,VNB,B,2
2,test,5,0.0,2-Back,1,m,Thu Sep 26 2024 16:13:38 GMT-0500 (Central Daylight Time),1008175.0,007_m_m_h_a.png,O,m,961,5,1,1978.7000000001863,1006196.2999999998,9999,VNB,B,3
2,test,5,0.0,2-Back,0,z,Thu Sep 26 2024 16:13:38 GMT-0500 (Central Daylight Time),1010124.5999999996,020_y_f_n_a.png,O,m,930,6,1,1946.0,1008178.5999999996,9999,VNB,B,4
3,test,5,0.0,2-Back,1,m,Thu Sep 26 2024 16:13:38 GMT-0500 (Central Daylight Time),1012107.0,005_o_f_d_a.png,O,m,957,7,1,1978.9000000003725,1010128.0999999996,9999,VNB,B,5
4,test,5,0.0,2-Back,1,m,Thu Sep 26 2024 16:13:38 GMT-0500 (Central Daylight Time),1014273.0,004_o_m_h_a.png,O,m,1142,8,1,2162.2999999998137,1012110.7000000002,9999,VNB,B,6
4,test,5,1.0,2-Back,0,z,Thu Sep 26 2024 16:13:38 GMT-0500 (Central Daylight Time),1016089.2999999998,011_m_f_d_a.png,O,m,792,9,1,1811.7999999998137,1014277.5,9999,VNB,B,7
5,test,5,0.0,2-Back,1,m,Thu Sep 26 2024 16:13:38 GMT-0500 (Central Daylight Time),1017622.0999999996,016_y_m_n_a.png,O,m,503,10,1,1529.0,1016093.0999999996,9999,VNB,B,8
6,test,5,0.0,2-Back,1,m,Thu Sep 26 2024 16:13:38 GMT-0500 (Central Daylight Time),1019671.4000000004,007_m_m_n_a.png,O,m,1027,11,1,2045.6000000005588,1017625.7999999998,9999,VNB,B,9
6,test,5,0.0,2-Back,0,m,Thu Sep 26 2024 16:13:38 GMT-0500 (Central Daylight Time),1021537.2999999998,020_y_f_h_a.png,O,z,834,12,1,1862.3999999994412,1019674.9000000004,9999,VNB,B,10
7,test,5,0.0,2-Back,1,m,Thu Sep 26 2024 16:13:38 GMT-0500 (Central Daylight Time),1023570.2000000002,016_y_m_d_a.png,O,m,1008,13,1,2029.1000000005588,1021541.0999999996,9999,VNB,B,11
7,test,5,1.0,2-Back,0,z,Thu Sep 26 2024 16:13:38 GMT-0500 (Central Daylight Time),1025519.5999999996,011_m_f_h_a.png,O,m,919,14,1,1945.699999999255,1023573.9000000004,9999,VNB,B,12
8,test,5,0.0,2-Back,1,m,Thu Sep 26 2024 16:13:38 GMT-0500 (Central Daylight Time),1027202.2999999998,004_o_m_n_a.png,O,m,657,15,1,1679.2999999998137,1025523.0,9999,VNB,B,13
9,test,5,0.0,2-Back,1,m,Thu Sep 26 2024 16:13:38 GMT-0500 (Central Daylight Time),1028868.5,007_m_m_d_a.png,O,m,647,16,1,1662.0999999996275,1027206.4000000004,9999,VNB,B,14
9,test,5,0.0,2-Back,0,z,Thu Sep 26 2024 16:13:38 GMT-0500 (Central Daylight Time),1030934.5999999996,005_o_f_n_a.png,O,m,1044,17,1,2062.5,1028872.0999999996,9999,VNB,B,15
10,test,5,1.0,2-Back,1,m,Thu Sep 26 2024 16:13:38 GMT-0500 (Central Daylight Time),1033017.0999999996,016_y_m_h_a.png,O,m,1059,18,1,2079.0,1030938.0999999996,9999,VNB,B,16
