acc_sum,block,block_c,change,condition,correct,correct_response,datetime,endtime,face,project,response,response_time,row_sel,session_number,start_end,starttime,subject_id,task,task_vers,trial
0,prac,1,,1-Back,,,Tue Sep 03 2024 09:34:19 GMT-0500 (Central Daylight Time),,005_o_f_d_a.png,O,space,23522,1,1,,,7016,VNB,B,0
1,prac,1,0.0,1-Back,1,m,Tue Sep 03 2024 09:34:19 GMT-0500 (Central Daylight Time),205118.60000002384,020_y_f_n_a.png,O,m,1521,2,1,2388.199999988079,202730.40000003576,7016,VNB,B,1
2,prac,1,0.0,1-Back,1,m,Tue Sep 03 2024 09:34:19 GMT-0500 (Central Daylight Time),207300.20000004768,007_m_m_h_a.png,O,m,1292,3,1,2175.600000023842,205124.60000002384,7016,VNB,B,2
3,prac,1,0.0,1-Back,1,m,Tue Sep 03 2024 09:34:19 GMT-0500 (Central Daylight Time),208916.30000001192,016_y_m_d_a.png,O,m,717,4,1,1610.199999988079,207306.10000002384,7016,VNB,B,3
4,prac,1,0.0,1-Back,1,m,Tue Sep 03 2024 09:34:19 GMT-0500 (Central Daylight Time),210699.10000002384,005_o_f_n_a.png,O,m,903,5,1,1777.1000000238419,208922.0,7016,VNB,B,4
5,prac,1,1.0,1-Back,1,z,Tue Sep 03 2024 09:34:19 GMT-0500 (Central Daylight Time),212431.5,016_y_m_n_a.png,O,z,830,6,1,1727.199999988079,210704.30000001192,7016,VNB,B,5
6,prac,1,0.0,1-Back,1,m,Tue Sep 03 2024 09:34:19 GMT-0500 (Central Daylight Time),214148.0,004_o_m_h_a.png,O,m,852,7,1,1711.0,212437.0,7016,VNB,B,6
7,prac,1,0.0,1-Back,1,m,Tue Sep 03 2024 09:34:19 GMT-0500 (Central Daylight Time),216080.90000003576,011_m_f_d_a.png,O,m,1037,8,1,1926.9000000357628,214154.0,7016,VNB,B,7
8,prac,1,1.0,1-Back,1,z,Tue Sep 03 2024 09:34:19 GMT-0500 (Central Daylight Time),217830.30000001192,020_y_f_d_a.png,O,z,876,9,1,1743.5999999642372,216086.70000004768,7016,VNB,B,8
9,prac,1,0.0,1-Back,1,m,Tue Sep 03 2024 09:34:19 GMT-0500 (Central Daylight Time),219663.0,007_m_m_n_a.png,O,m,932,10,1,1826.8999999761581,217836.10000002384,7016,VNB,B,9
10,prac,1,0.0,1-Back,1,m,Tue Sep 03 2024 09:34:19 GMT-0500 (Central Daylight Time),221379.10000002384,005_o_f_h_a.png,O,m,835,11,1,1710.5,219668.60000002384,7016,VNB,B,10
11,prac,1,0.0,1-Back,1,m,Tue Sep 03 2024 09:34:19 GMT-0500 (Central Daylight Time),223045.30000001192,016_y_m_d_a.png,O,m,775,12,1,1660.800000011921,221384.5,7016,VNB,B,11
0,test,1,0.0,1-Back,,,Tue Sep 03 2024 09:34:19 GMT-0500 (Central Daylight Time),223045.30000001192,020_y_f_d_a.png,O,space,36000,1,1,1660.800000011921,221384.5,7016,VNB,B,0
1,test,1,0.0,1-Back,1,m,Tue Sep 03 2024 09:34:19 GMT-0500 (Central Daylight Time),268514.10000002384,011_m_f_n_a.png,O,m,942,2,1,1961.5,266552.60000002384,7016,VNB,B,1
2,test,1,0.0,1-Back,1,m,Tue Sep 03 2024 09:34:19 GMT-0500 (Central Daylight Time),270397.0,004_o_m_h_a.png,O,m,863,3,1,1878.3999999761581,268518.60000002384,7016,VNB,B,2
3,test,1,1.0,1-Back,1,z,Tue Sep 03 2024 09:34:19 GMT-0500 (Central Daylight Time),272196.3000000119,007_m_m_h_a.png,O,z,773,4,1,1795.8999999761581,270400.40000003576,7016,VNB,B,3
4,test,1,0.0,1-Back,1,m,Tue Sep 03 2024 09:34:19 GMT-0500 (Central Daylight Time),274062.40000003576,005_o_f_n_a.png,O,m,845,5,1,1862.5,272199.90000003576,7016,VNB,B,4
4,test,1,0.0,1-Back,0,m,Tue Sep 03 2024 09:34:19 GMT-0500 (Central Daylight Time),275978.5,016_y_m_d_a.png,O,z,890,6,1,1911.8999999761581,274066.60000002384,7016,VNB,B,5
5,test,1,1.0,1-Back,1,z,Tue Sep 03 2024 09:34:19 GMT-0500 (Central Daylight Time),278361.10000002384,011_m_f_d_a.png,O,z,1359,7,1,2378.699999988079,275982.40000003576,7016,VNB,B,6
6,test,1,0.0,1-Back,1,m,Tue Sep 03 2024 09:34:19 GMT-0500 (Central Daylight Time),280227.10000002384,020_y_f_h_a.png,O,m,848,8,1,1862.0,278365.10000002384,7016,VNB,B,7
7,test,1,0.0,1-Back,1,m,Tue Sep 03 2024 09:34:19 GMT-0500 (Central Daylight Time),282142.90000003576,004_o_m_n_a.png,O,m,836,9,1,1911.800000011921,280231.10000002384,7016,VNB,B,8
8,test,1,0.0,1-Back,1,m,Tue Sep 03 2024 09:34:19 GMT-0500 (Central Daylight Time),284026.0,016_y_m_h_a.png,O,m,799,10,1,1878.5999999642372,282147.40000003576,7016,VNB,B,9
9,test,1,0.0,1-Back,1,m,Tue Sep 03 2024 09:34:19 GMT-0500 (Central Daylight Time),285775.5,004_o_m_d_a.png,O,m,670,11,1,1745.699999988079,284029.8000000119,7016,VNB,B,10
10,test,1,1.0,1-Back,1,z,Tue Sep 03 2024 09:34:19 GMT-0500 (Central Daylight Time),287642.7000000477,005_o_f_d_a.png,O,z,800,12,1,1863.6000000238419,285779.10000002384,7016,VNB,B,11
11,test,1,0.0,1-Back,1,m,Tue Sep 03 2024 09:34:19 GMT-0500 (Central Daylight Time),289557.60000002384,007_m_m_n_a.png,O,m,839,13,1,1911.300000011921,287646.3000000119,7016,VNB,B,12
12,test,1,1.0,1-Back,1,z,Tue Sep 03 2024 09:34:19 GMT-0500 (Central Daylight Time),291623.90000003576,020_y_f_n_a.png,O,z,995,14,1,2062.400000035763,289561.5,7016,VNB,B,13
13,test,1,0.0,1-Back,1,m,Tue Sep 03 2024 09:34:19 GMT-0500 (Central Daylight Time),293539.7000000477,011_m_f_h_a.png,O,m,841,15,1,1912.4000000357628,291627.3000000119,7016,VNB,B,14
14,test,1,0.0,1-Back,1,m,Tue Sep 03 2024 09:34:19 GMT-0500 (Central Daylight Time),295422.5,007_m_m_d_a.png,O,m,804,16,1,1879.0,293543.5,7016,VNB,B,15
15,test,1,0.0,1-Back,1,m,Tue Sep 03 2024 09:34:19 GMT-0500 (Central Daylight Time),297338.5,016_y_m_n_a.png,O,m,808,17,1,1912.2999999523163,295426.2000000477,7016,VNB,B,16
16,test,1,0.0,1-Back,1,m,Tue Sep 03 2024 09:34:19 GMT-0500 (Central Daylight Time),299321.0,005_o_f_h_a.png,O,m,901,18,1,1978.7999999523163,297342.2000000477,7016,VNB,B,17
0,test,2,0.0,1-Back,,,Tue Sep 03 2024 09:34:19 GMT-0500 (Central Daylight Time),299321.0,016_y_m_n_a.png,O,space,12553,1,1,1978.7999999523163,297342.2000000477,7016,VNB,B,0
1,test,2,0.0,1-Back,1,m,Tue Sep 03 2024 09:34:19 GMT-0500 (Central Daylight Time),315782.8000000119,020_y_f_h_a.png,O,m,862,2,1,1878.5999999642372,313904.2000000477,7016,VNB,B,1
2,test,2,1.0,1-Back,1,m,Tue Sep 03 2024 09:34:19 GMT-0500 (Central Daylight Time),317732.10000002384,004_o_m_n_a.png,O,m,932,3,1,1946.0,315786.10000002384,7016,VNB,B,2
3,test,2,0.0,1-Back,1,m,Tue Sep 03 2024 09:34:19 GMT-0500 (Central Daylight Time),319664.7000000477,011_m_f_d_a.png,O,m,902,4,1,1928.9000000357628,317735.8000000119,7016,VNB,B,3
4,test,2,0.0,1-Back,1,z,Tue Sep 03 2024 09:34:19 GMT-0500 (Central Daylight Time),321397.60000002384,007_m_m_d_a.png,O,z,713,5,1,1729.0,319668.60000002384,7016,VNB,B,4
5,test,2,0.0,1-Back,1,m,Tue Sep 03 2024 09:34:19 GMT-0500 (Central Daylight Time),323280.40000003576,016_y_m_h_a.png,O,m,860,6,1,1879.4000000357628,321401.0,7016,VNB,B,5
6,test,2,1.0,1-Back,1,z,Tue Sep 03 2024 09:34:19 GMT-0500 (Central Daylight Time),325063.0,005_o_f_h_a.png,O,z,762,7,1,1778.2999999523163,323284.7000000477,7016,VNB,B,6
7,test,2,0.0,1-Back,1,m,Tue Sep 03 2024 09:34:19 GMT-0500 (Central Daylight Time),326845.90000003576,011_m_f_n_a.png,O,m,712,8,1,1778.5,325067.40000003576,7016,VNB,B,7
8,test,2,0.0,1-Back,1,m,Tue Sep 03 2024 09:34:19 GMT-0500 (Central Daylight Time),328811.7000000477,020_y_f_d_a.png,O,m,898,9,1,1962.1000000238419,326849.60000002384,7016,VNB,B,8
9,test,2,0.0,1-Back,1,m,Tue Sep 03 2024 09:34:19 GMT-0500 (Central Daylight Time),330611.2000000477,007_m_m_n_a.png,O,m,731,10,1,1795.300000011921,328815.90000003576,7016,VNB,B,9
10,test,2,1.0,1-Back,1,m,Tue Sep 03 2024 09:34:19 GMT-0500 (Central Daylight Time),332394.10000002384,011_m_f_h_a.png,O,m,708,11,1,1778.699999988079,330615.40000003576,7016,VNB,B,10
11,test,2,0.0,1-Back,1,z,Tue Sep 03 2024 09:34:19 GMT-0500 (Central Daylight Time),334260.3000000119,004_o_m_h_a.png,O,z,798,12,1,1862.3999999761581,332397.90000003576,7016,VNB,B,11
12,test,2,0.0,1-Back,1,m,Tue Sep 03 2024 09:34:19 GMT-0500 (Central Daylight Time),336176.3000000119,016_y_m_d_a.png,O,m,836,13,1,1912.0999999642372,334264.2000000477,7016,VNB,B,12
13,test,2,0.0,1-Back,1,m,Tue Sep 03 2024 09:34:19 GMT-0500 (Central Daylight Time),337959.10000002384,005_o_f_n_a.png,O,m,711,14,1,1779.1000000238419,336180.0,7016,VNB,B,13
14,test,2,0.0,1-Back,1,z,Tue Sep 03 2024 09:34:19 GMT-0500 (Central Daylight Time),339775.40000003576,020_y_f_n_a.png,O,z,736,15,1,1812.0,337963.40000003576,7016,VNB,B,14
15,test,2,1.0,1-Back,1,m,Tue Sep 03 2024 09:34:19 GMT-0500 (Central Daylight Time),341574.60000002384,007_m_m_h_a.png,O,m,728,16,1,1794.800000011921,339779.8000000119,7016,VNB,B,15
16,test,2,0.0,1-Back,1,m,Tue Sep 03 2024 09:34:19 GMT-0500 (Central Daylight Time),343340.60000002384,005_o_f_d_a.png,O,m,698,17,1,1762.199999988079,341578.40000003576,7016,VNB,B,16
17,test,2,1.0,1-Back,1,z,Tue Sep 03 2024 09:34:19 GMT-0500 (Central Daylight Time),345306.40000003576,004_o_m_d_a.png,O,z,891,18,1,1961.5,343344.90000003576,7016,VNB,B,17
0,test,3,1.0,1-Back,,,Tue Sep 03 2024 09:34:19 GMT-0500 (Central Daylight Time),345306.40000003576,005_o_f_h_a.png,O,space,1910,1,1,1961.5,343344.90000003576,7016,VNB,B,0
1,test,3,0.0,1-Back,1,m,Tue Sep 03 2024 09:34:19 GMT-0500 (Central Daylight Time),351154.90000003576,011_m_f_d_a.png,O,m,784,2,1,1812.199999988079,349342.7000000477,7016,VNB,B,1
2,test,3,1.0,1-Back,1,m,Tue Sep 03 2024 09:34:19 GMT-0500 (Central Daylight Time),353555.2000000477,007_m_m_n_a.png,O,m,1375,3,1,2396.400000035763,351158.8000000119,7016,VNB,B,2
3,test,3,0.0,1-Back,1,z,Tue Sep 03 2024 09:34:19 GMT-0500 (Central Daylight Time),355420.2000000477,005_o_f_n_a.png,O,z,848,4,1,1860.7000000476837,353559.5,7016,VNB,B,3
3,test,3,1.0,1-Back,0,m,Tue Sep 03 2024 09:34:19 GMT-0500 (Central Daylight Time),357753.0,004_o_m_d_a.png,O,z,1300,5,1,2329.0,355424.0,7016,VNB,B,4
4,test,3,0.0,1-Back,1,m,Tue Sep 03 2024 09:34:19 GMT-0500 (Central Daylight Time),359452.3000000119,020_y_f_h_a.png,O,m,681,6,1,1695.0,357757.3000000119,7016,VNB,B,5
5,test,3,0.0,1-Back,1,z,Tue Sep 03 2024 09:34:19 GMT-0500 (Central Daylight Time),361285.10000002384,016_y_m_h_a.png,O,z,806,7,1,1828.8999999761581,359456.2000000477,7016,VNB,B,6
6,test,3,0.0,1-Back,1,m,Tue Sep 03 2024 09:34:19 GMT-0500 (Central Daylight Time),363067.60000002384,011_m_f_n_a.png,O,m,756,8,1,1778.699999988079,361288.90000003576,7016,VNB,B,7
7,test,3,0.0,1-Back,1,m,Tue Sep 03 2024 09:34:19 GMT-0500 (Central Daylight Time),364950.5,020_y_f_d_a.png,O,m,861,9,1,1878.5,363072.0,7016,VNB,B,8
8,test,3,1.0,1-Back,1,m,Tue Sep 03 2024 09:34:19 GMT-0500 (Central Daylight Time),366866.60000002384,004_o_m_n_a.png,O,m,884,10,1,1912.0,364954.60000002384,7016,VNB,B,9
9,test,3,0.0,1-Back,1,m,Tue Sep 03 2024 09:34:19 GMT-0500 (Central Daylight Time),368782.90000003576,007_m_m_h_a.png,O,m,838,11,1,1911.800000011921,366871.10000002384,7016,VNB,B,10
10,test,3,0.0,1-Back,1,z,Tue Sep 03 2024 09:34:19 GMT-0500 (Central Daylight Time),370948.7000000477,011_m_f_h_a.png,O,z,1090,12,1,2161.900000035763,368786.8000000119,7016,VNB,B,11
11,test,3,1.0,1-Back,1,m,Tue Sep 03 2024 09:34:19 GMT-0500 (Central Daylight Time),372765.0,005_o_f_d_a.png,O,m,747,13,1,1812.2999999523163,370952.7000000477,7016,VNB,B,12
12,test,3,0.0,1-Back,1,z,Tue Sep 03 2024 09:34:19 GMT-0500 (Central Daylight Time),374614.3000000119,007_m_m_d_a.png,O,z,779,14,1,1845.8999999761581,372768.40000003576,7016,VNB,B,13
13,test,3,0.0,1-Back,1,m,Tue Sep 03 2024 09:34:19 GMT-0500 (Central Daylight Time),376776.5,016_y_m_n_a.png,O,m,1095,15,1,2158.0,374618.5,7016,VNB,B,14
14,test,3,1.0,1-Back,1,m,Tue Sep 03 2024 09:34:19 GMT-0500 (Central Daylight Time),378729.5,004_o_m_h_a.png,O,m,835,16,1,1949.2999999523163,376780.2000000477,7016,VNB,B,15
15,test,3,0.0,1-Back,1,m,Tue Sep 03 2024 09:34:19 GMT-0500 (Central Daylight Time),381145.40000003576,016_y_m_d_a.png,O,m,1335,17,1,2412.5,378732.90000003576,7016,VNB,B,16
16,test,3,1.0,1-Back,1,m,Tue Sep 03 2024 09:34:19 GMT-0500 (Central Daylight Time),383012.60000002384,020_y_f_n_a.png,O,m,798,18,1,1862.5,381150.10000002384,7016,VNB,B,17
0,test,4,1.0,1-Back,,,Tue Sep 03 2024 09:34:19 GMT-0500 (Central Daylight Time),383012.60000002384,007_m_m_d_a.png,O,space,3380,1,1,1862.5,381150.10000002384,7016,VNB,B,0
1,test,4,0.0,1-Back,1,z,Tue Sep 03 2024 09:34:19 GMT-0500 (Central Daylight Time),390492.5,004_o_m_d_a.png,O,z,857,2,1,1960.699999988079,388531.8000000119,7016,VNB,B,1
2,test,4,0.0,1-Back,1,m,Tue Sep 03 2024 09:34:19 GMT-0500 (Central Daylight Time),392308.60000002384,016_y_m_h_a.png,O,m,706,3,1,1812.6000000238419,390496.0,7016,VNB,B,2
3,test,4,0.0,1-Back,1,m,Tue Sep 03 2024 09:34:19 GMT-0500 (Central Daylight Time),394041.60000002384,011_m_f_n_a.png,O,m,710,4,1,1729.300000011921,392312.3000000119,7016,VNB,B,3
4,test,4,1.0,1-Back,1,m,Tue Sep 03 2024 09:34:19 GMT-0500 (Central Daylight Time),396040.8000000119,005_o_f_h_a.png,O,m,918,5,1,1996.0999999642372,394044.7000000477,7016,VNB,B,4
5,test,4,0.0,1-Back,1,m,Tue Sep 03 2024 09:34:19 GMT-0500 (Central Daylight Time),397906.90000003576,007_m_m_n_a.png,O,m,799,6,1,1862.5,396044.40000003576,7016,VNB,B,5
6,test,4,0.0,1-Back,1,m,Tue Sep 03 2024 09:34:19 GMT-0500 (Central Daylight Time),399722.90000003576,016_y_m_d_a.png,O,m,750,7,1,1812.199999988079,397910.7000000477,7016,VNB,B,6
7,test,4,1.0,1-Back,1,z,Tue Sep 03 2024 09:34:19 GMT-0500 (Central Daylight Time),401505.7000000477,020_y_f_d_a.png,O,z,676,8,1,1779.1000000238419,399726.60000002384,7016,VNB,B,7
8,test,4,0.0,1-Back,1,m,Tue Sep 03 2024 09:34:19 GMT-0500 (Central Daylight Time),403488.5,011_m_f_h_a.png,O,m,901,9,1,1978.699999988079,401509.8000000119,7016,VNB,B,8
9,test,4,0.0,1-Back,1,z,Tue Sep 03 2024 09:34:19 GMT-0500 (Central Daylight Time),405387.7000000477,004_o_m_h_a.png,O,z,831,10,1,1895.0,403492.7000000477,7016,VNB,B,9
10,test,4,1.0,1-Back,1,m,Tue Sep 03 2024 09:34:19 GMT-0500 (Central Daylight Time),407270.60000002384,005_o_f_n_a.png,O,m,812,11,1,1877.8999999761581,405392.7000000477,7016,VNB,B,10
11,test,4,0.0,1-Back,1,m,Tue Sep 03 2024 09:34:19 GMT-0500 (Central Daylight Time),409203.2000000477,011_m_f_d_a.png,O,m,866,12,1,1929.2000000476837,407274.0,7016,VNB,B,11
12,test,4,0.0,1-Back,1,m,Tue Sep 03 2024 09:34:19 GMT-0500 (Central Daylight Time),411286.0,020_y_f_n_a.png,O,m,1012,13,1,2079.2999999523163,409206.7000000477,7016,VNB,B,12
13,test,4,0.0,1-Back,1,m,Tue Sep 03 2024 09:34:19 GMT-0500 (Central Daylight Time),413070.0,005_o_f_d_a.png,O,m,705,14,1,1779.8999999761581,411290.10000002384,7016,VNB,B,13
14,test,4,0.0,1-Back,1,m,Tue Sep 03 2024 09:34:19 GMT-0500 (Central Daylight Time),415068.2000000477,020_y_f_h_a.png,O,m,931,15,1,1994.300000011921,413073.90000003576,7016,VNB,B,14
15,test,4,1.0,1-Back,1,z,Tue Sep 03 2024 09:34:19 GMT-0500 (Central Daylight Time),416784.5,007_m_m_h_a.png,O,z,635,16,1,1712.199999988079,415072.3000000119,7016,VNB,B,15
16,test,4,0.0,1-Back,1,m,Tue Sep 03 2024 09:34:19 GMT-0500 (Central Daylight Time),418567.2000000477,004_o_m_n_a.png,O,m,670,17,1,1779.2000000476837,416788.0,7016,VNB,B,16
17,test,4,1.0,1-Back,1,z,Tue Sep 03 2024 09:34:19 GMT-0500 (Central Daylight Time),420333.2000000477,016_y_m_n_a.png,O,z,696,18,1,1762.1000000238419,418571.10000002384,7016,VNB,B,17
0,test,5,1.0,1-Back,,,Tue Sep 03 2024 09:34:19 GMT-0500 (Central Daylight Time),420333.2000000477,004_o_m_n_a.png,O,space,2588,1,1,1762.1000000238419,418571.10000002384,7016,VNB,B,0
1,test,5,1.0,1-Back,1,m,Tue Sep 03 2024 09:34:19 GMT-0500 (Central Daylight Time),426714.60000002384,005_o_f_h_a.png,O,m,734,2,1,1762.699999988079,424951.90000003576,7016,VNB,B,1
2,test,5,0.0,1-Back,1,m,Tue Sep 03 2024 09:34:19 GMT-0500 (Central Daylight Time),428447.3000000119,016_y_m_d_a.png,O,m,704,3,1,1729.199999988079,426718.10000002384,7016,VNB,B,2
3,test,5,0.0,1-Back,1,z,Tue Sep 03 2024 09:34:19 GMT-0500 (Central Daylight Time),430130.10000002384,004_o_m_d_a.png,O,z,650,4,1,1679.0,428451.10000002384,7016,VNB,B,3
4,test,5,0.0,1-Back,1,m,Tue Sep 03 2024 09:34:19 GMT-0500 (Central Daylight Time),431912.7000000477,011_m_f_h_a.png,O,m,702,5,1,1778.9000000357628,430133.8000000119,7016,VNB,B,4
5,test,5,0.0,1-Back,1,m,Tue Sep 03 2024 09:34:19 GMT-0500 (Central Daylight Time),433828.8000000119,020_y_f_n_a.png,O,m,840,6,1,1911.800000011921,431917.0,7016,VNB,B,5
6,test,5,1.0,1-Back,1,z,Tue Sep 03 2024 09:34:19 GMT-0500 (Central Daylight Time),435696.2000000477,005_o_f_n_a.png,O,z,787,7,1,1864.0,433832.2000000477,7016,VNB,B,6
7,test,5,0.0,1-Back,1,m,Tue Sep 03 2024 09:34:19 GMT-0500 (Central Daylight Time),437561.0,011_m_f_d_a.png,O,m,785,8,1,1860.7999999523163,435700.2000000477,7016,VNB,B,7
8,test,5,0.0,1-Back,1,m,Tue Sep 03 2024 09:34:19 GMT-0500 (Central Daylight Time),439593.7000000477,016_y_m_h_a.png,O,m,958,9,1,2028.6000000238419,437565.10000002384,7016,VNB,B,8
8,test,5,0.0,1-Back,0,m,Tue Sep 03 2024 09:34:19 GMT-0500 (Central Daylight Time),442676.7000000477,020_y_f_d_a.png,O,None,2016,10,1,3079.300000011921,439597.40000003576,7016,VNB,B,9
9,test,5,0.0,1-Back,1,m,Tue Sep 03 2024 09:34:19 GMT-0500 (Central Daylight Time),444692.10000002384,007_m_m_n_a.png,O,m,940,11,1,2011.699999988079,442680.40000003576,7016,VNB,B,10
10,test,5,1.0,1-Back,1,z,Tue Sep 03 2024 09:34:19 GMT-0500 (Central Daylight Time),446525.0,011_m_f_n_a.png,O,z,763,12,1,1828.7999999523163,444696.2000000477,7016,VNB,B,11
11,test,5,0.0,1-Back,1,m,Tue Sep 03 2024 09:34:19 GMT-0500 (Central Daylight Time),448490.7000000477,004_o_m_h_a.png,O,m,883,13,1,1962.5,446528.2000000477,7016,VNB,B,12
11,test,5,0.0,1-Back,0,z,Tue Sep 03 2024 09:34:19 GMT-0500 (Central Daylight Time),450540.3000000119,007_m_m_h_a.png,O,m,973,14,1,2046.0999999642372,448494.2000000477,7016,VNB,B,13
12,test,5,1.0,1-Back,1,m,Tue Sep 03 2024 09:34:19 GMT-0500 (Central Daylight Time),452289.90000003576,005_o_f_d_a.png,O,m,667,15,1,1745.9000000357628,450544.0,7016,VNB,B,14
13,test,5,0.0,1-Back,1,m,Tue Sep 03 2024 09:34:19 GMT-0500 (Central Daylight Time),454105.90000003576,016_y_m_n_a.png,O,m,734,16,1,1812.5,452293.40000003576,7016,VNB,B,15
14,test,5,0.0,1-Back,1,m,Tue Sep 03 2024 09:34:19 GMT-0500 (Central Daylight Time),455888.3000000119,020_y_f_h_a.png,O,m,702,17,1,1778.300000011921,454110.0,7016,VNB,B,16
15,test,5,0.0,1-Back,1,m,Tue Sep 03 2024 09:34:19 GMT-0500 (Central Daylight Time),457621.8000000119,007_m_m_d_a.png,O,m,656,18,1,1729.699999988079,455892.10000002384,7016,VNB,B,17
0,prac,1,0.0,2-Back,,,Tue Sep 03 2024 09:34:19 GMT-0500 (Central Daylight Time),457621.8000000119,011_m_f_n_a.png,O,space,26731,1,1,1729.699999988079,455892.10000002384,7016,VNB,B,0
0,prac,1,0.0,2-Back,,,Tue Sep 03 2024 09:34:19 GMT-0500 (Central Daylight Time),457621.8000000119,005_o_f_h_a.png,O,space,26731,2,1,1729.699999988079,455892.10000002384,7016,VNB,B,0
1,prac,1,0.0,2-Back,1,m,Tue Sep 03 2024 09:34:19 GMT-0500 (Central Daylight Time),592495.8000000119,004_o_m_d_a.png,O,m,1050,3,1,1910.3999999761581,590585.4000000358,7016,VNB,B,1
2,prac,1,1.0,2-Back,1,z,Tue Sep 03 2024 09:34:19 GMT-0500 (Central Daylight Time),594745.0,007_m_m_h_a.png,O,z,1351,4,1,2243.199999988079,592501.8000000119,7016,VNB,B,2
2,prac,1,0.0,2-Back,0,m,Tue Sep 03 2024 09:34:19 GMT-0500 (Central Daylight Time),597327.6000000238,020_y_f_n_a.png,O,z,1702,5,1,2576.899999976158,594750.7000000477,7016,VNB,B,3
3,prac,1,1.0,2-Back,1,z,Tue Sep 03 2024 09:34:19 GMT-0500 (Central Daylight Time),599593.9000000358,004_o_m_h_a.png,O,z,1387,6,1,2261.0,597332.9000000358,7016,VNB,B,4
3,prac,1,1.0,2-Back,0,z,Tue Sep 03 2024 09:34:19 GMT-0500 (Central Daylight Time),601393.0,016_y_m_n_a.png,O,m,911,7,1,1793.5999999642372,599599.4000000358,7016,VNB,B,5
4,prac,1,0.0,2-Back,1,m,Tue Sep 03 2024 09:34:19 GMT-0500 (Central Daylight Time),603558.9000000358,011_m_f_d_a.png,O,m,1281,8,1,2160.600000023842,601398.3000000119,7016,VNB,B,6
4,prac,1,0.0,2-Back,0,m,Tue Sep 03 2024 09:34:19 GMT-0500 (Central Daylight Time),605858.4000000358,005_o_f_d_a.png,O,z,1417,9,1,2294.0,603564.4000000358,7016,VNB,B,7
5,prac,1,0.0,2-Back,1,m,Tue Sep 03 2024 09:34:19 GMT-0500 (Central Daylight Time),607957.6000000238,007_m_m_h_a.png,O,m,1323,10,1,2093.600000023842,605864.0,7016,VNB,B,8
6,prac,1,1.0,2-Back,1,z,Tue Sep 03 2024 09:34:19 GMT-0500 (Central Daylight Time),610190.3000000119,020_y_f_d_a.png,O,z,1350,11,1,2227.099999964237,607963.2000000477,7016,VNB,B,9
7,prac,1,0.0,2-Back,1,m,Tue Sep 03 2024 09:34:19 GMT-0500 (Central Daylight Time),612389.3000000119,004_o_m_n_a.png,O,m,1334,12,1,2193.399999976158,610195.9000000358,7016,VNB,B,10
0,test,1,0.0,2-Back,,,Tue Sep 03 2024 09:34:19 GMT-0500 (Central Daylight Time),612389.3000000119,016_y_m_h_a.png,O,space,21718,1,1,2193.399999976158,610195.9000000358,7016,VNB,B,0
0,test,1,0.0,2-Back,,,Tue Sep 03 2024 09:34:19 GMT-0500 (Central Daylight Time),612389.3000000119,005_o_f_n_a.png,O,space,21718,2,1,2193.399999976158,610195.9000000358,7016,VNB,B,0
1,test,1,0.0,2-Back,1,z,Tue Sep 03 2024 09:34:19 GMT-0500 (Central Daylight Time),663639.9000000358,004_o_m_h_a.png,O,z,1386,3,1,2410.800000011921,661229.1000000238,7016,VNB,B,1
2,test,1,0.0,2-Back,1,m,Tue Sep 03 2024 09:34:19 GMT-0500 (Central Daylight Time),665689.4000000358,011_m_f_d_a.png,O,m,968,4,1,2045.699999988079,663643.7000000477,7016,VNB,B,2
3,test,1,1.0,2-Back,1,m,Tue Sep 03 2024 09:34:19 GMT-0500 (Central Daylight Time),667771.9000000358,016_y_m_n_a.png,O,m,1007,5,1,2078.300000011921,665693.6000000238,7016,VNB,B,3
4,test,1,0.0,2-Back,1,z,Tue Sep 03 2024 09:34:19 GMT-0500 (Central Daylight Time),669888.2000000477,020_y_f_d_a.png,O,z,1036,6,1,2112.400000035763,667775.8000000119,7016,VNB,B,4
5,test,1,0.0,2-Back,1,m,Tue Sep 03 2024 09:34:19 GMT-0500 (Central Daylight Time),672337.5,007_m_m_h_a.png,O,m,1426,7,1,2446.099999964237,669891.4000000358,7016,VNB,B,5
5,test,1,1.0,2-Back,0,m,Tue Sep 03 2024 09:34:19 GMT-0500 (Central Daylight Time),674153.4000000358,020_y_f_n_a.png,O,z,785,8,1,1812.699999988079,672340.7000000477,7016,VNB,B,6
6,test,1,0.0,2-Back,1,z,Tue Sep 03 2024 09:34:19 GMT-0500 (Central Daylight Time),676136.3000000119,005_o_f_h_a.png,O,z,960,9,1,1978.3999999761581,674157.9000000358,7016,VNB,B,7
7,test,1,0.0,2-Back,1,m,Tue Sep 03 2024 09:34:19 GMT-0500 (Central Daylight Time),678068.8000000119,004_o_m_d_a.png,O,m,905,10,1,1928.8999999761581,676139.9000000358,7016,VNB,B,8
7,test,1,1.0,2-Back,0,m,Tue Sep 03 2024 09:34:19 GMT-0500 (Central Daylight Time),681101.7000000477,007_m_m_d_a.png,O,None,2015,11,1,3028.900000035763,678072.8000000119,7016,VNB,B,9
8,test,1,0.0,2-Back,1,m,Tue Sep 03 2024 09:34:19 GMT-0500 (Central Daylight Time),683533.9000000358,011_m_f_n_a.png,O,m,1355,12,1,2428.199999988079,681105.7000000477,7016,VNB,B,10
9,test,1,0.0,2-Back,1,m,Tue Sep 03 2024 09:34:19 GMT-0500 (Central Daylight Time),685866.5,020_y_f_h_a.png,O,m,1300,13,1,2329.399999976158,683537.1000000238,7016,VNB,B,11
10,test,1,0.0,2-Back,1,z,Tue Sep 03 2024 09:34:19 GMT-0500 (Central Daylight Time),687799.2000000477,007_m_m_n_a.png,O,z,854,14,1,1928.9000000357628,685870.3000000119,7016,VNB,B,12
11,test,1,0.0,2-Back,1,m,Tue Sep 03 2024 09:34:19 GMT-0500 (Central Daylight Time),690115.0,016_y_m_d_a.png,O,m,1290,15,1,2312.599999964237,687802.4000000358,7016,VNB,B,13
12,test,1,1.0,2-Back,1,m,Tue Sep 03 2024 09:34:19 GMT-0500 (Central Daylight Time),692864.2000000477,011_m_f_h_a.png,O,m,1669,16,1,2745.100000023842,690119.1000000238,7016,VNB,B,14
13,test,1,0.0,2-Back,1,z,Tue Sep 03 2024 09:34:19 GMT-0500 (Central Daylight Time),695580.0,005_o_f_d_a.png,O,z,1648,17,1,2712.0,692868.0,7016,VNB,B,15
14,test,1,0.0,2-Back,1,m,Tue Sep 03 2024 09:34:19 GMT-0500 (Central Daylight Time),698079.0,004_o_m_n_a.png,O,m,1478,18,1,2496.099999964237,695582.9000000358,7016,VNB,B,16
0,test,2,0.0,2-Back,,,Tue Sep 03 2024 09:34:19 GMT-0500 (Central Daylight Time),698079.0,007_m_m_h_a.png,O,space,9427,1,1,2496.099999964237,695582.9000000358,7016,VNB,B,0
0,test,2,0.0,2-Back,,,Tue Sep 03 2024 09:34:19 GMT-0500 (Central Daylight Time),698079.0,020_y_f_n_a.png,O,space,9427,2,1,2496.099999964237,695582.9000000358,7016,VNB,B,0
1,test,2,1.0,2-Back,1,z,Tue Sep 03 2024 09:34:19 GMT-0500 (Central Daylight Time),715057.3000000119,005_o_f_h_a.png,O,z,1269,3,1,2295.199999988079,712762.1000000238,7016,VNB,B,1
2,test,2,0.0,2-Back,1,m,Tue Sep 03 2024 09:34:19 GMT-0500 (Central Daylight Time),716873.4000000358,004_o_m_d_a.png,O,m,793,4,1,1813.0,715060.4000000358,7016,VNB,B,2
3,test,2,0.0,2-Back,1,m,Tue Sep 03 2024 09:34:19 GMT-0500 (Central Daylight Time),719307.0,011_m_f_d_a.png,O,m,1401,5,1,2429.899999976158,716877.1000000238,7016,VNB,B,3
4,test,2,0.0,2-Back,1,m,Tue Sep 03 2024 09:34:19 GMT-0500 (Central Daylight Time),721621.6000000238,016_y_m_h_a.png,O,m,1297,6,1,2311.300000011921,719310.3000000119,7016,VNB,B,4
4,test,2,0.0,2-Back,0,m,Tue Sep 03 2024 09:34:19 GMT-0500 (Central Daylight Time),723821.0,005_o_f_n_a.png,O,z,1172,7,1,2195.599999964237,721625.4000000358,7016,VNB,B,5
5,test,2,1.0,2-Back,1,z,Tue Sep 03 2024 09:34:19 GMT-0500 (Central Daylight Time),725770.6000000238,004_o_m_h_a.png,O,z,916,8,1,1946.0,723824.6000000238,7016,VNB,B,6
6,test,2,0.0,2-Back,1,m,Tue Sep 03 2024 09:34:19 GMT-0500 (Central Daylight Time),728119.7000000477,020_y_f_d_a.png,O,m,1320,9,1,2345.400000035763,725774.3000000119,7016,VNB,B,7
7,test,2,0.0,2-Back,1,m,Tue Sep 03 2024 09:34:19 GMT-0500 (Central Daylight Time),730835.3000000119,016_y_m_d_a.png,O,m,1698,10,1,2711.599999964237,728123.7000000477,7016,VNB,B,8
8,test,2,0.0,2-Back,1,m,Tue Sep 03 2024 09:34:19 GMT-0500 (Central Daylight Time),733334.8000000119,007_m_m_n_a.png,O,m,1471,11,1,2495.899999976158,730838.9000000358,7016,VNB,B,9
9,test,2,0.0,2-Back,1,m,Tue Sep 03 2024 09:34:19 GMT-0500 (Central Daylight Time),735317.5,011_m_f_h_a.png,O,m,955,12,1,1978.5999999642372,733338.9000000358,7016,VNB,B,10
10,test,2,1.0,2-Back,1,z,Tue Sep 03 2024 09:34:19 GMT-0500 (Central Daylight Time),737433.5,004_o_m_n_a.png,O,z,1084,13,1,2112.899999976158,735320.6000000238,7016,VNB,B,11
11,test,2,0.0,2-Back,1,m,Tue Sep 03 2024 09:34:19 GMT-0500 (Central Daylight Time),739516.1000000238,005_o_f_d_a.png,O,m,1056,14,1,2079.300000011921,737436.8000000119,7016,VNB,B,12
12,test,2,0.0,2-Back,1,m,Tue Sep 03 2024 09:34:19 GMT-0500 (Central Daylight Time),741598.8000000119,020_y_f_h_a.png,O,m,1062,15,1,2079.0,739519.8000000119,7016,VNB,B,13
12,test,2,0.0,2-Back,0,z,Tue Sep 03 2024 09:34:19 GMT-0500 (Central Daylight Time),744364.7000000477,007_m_m_d_a.png,O,m,1739,16,1,2762.2000000476837,741602.5,7016,VNB,B,14
12,test,2,0.0,2-Back,0,m,Tue Sep 03 2024 09:34:19 GMT-0500 (Central Daylight Time),746264.0,016_y_m_n_a.png,O,z,869,17,1,1895.2999999523163,744368.7000000477,7016,VNB,B,15
13,test,2,1.0,2-Back,1,m,Tue Sep 03 2024 09:34:19 GMT-0500 (Central Daylight Time),748529.6000000238,011_m_f_n_a.png,O,m,1241,18,1,2261.399999976158,746268.2000000477,7016,VNB,B,16
0,test,3,1.0,2-Back,,,Tue Sep 03 2024 09:34:19 GMT-0500 (Central Daylight Time),748529.6000000238,004_o_m_n_a.png,O,space,4304,1,1,2261.399999976158,746268.2000000477,7016,VNB,B,0
0,test,3,1.0,2-Back,,,Tue Sep 03 2024 09:34:19 GMT-0500 (Central Daylight Time),748529.6000000238,005_o_f_d_a.png,O,space,4304,2,1,2261.399999976158,746268.2000000477,7016,VNB,B,0
1,test,3,0.0,2-Back,1,m,Tue Sep 03 2024 09:34:19 GMT-0500 (Central Daylight Time),761009.6000000238,020_y_f_h_a.png,O,m,1909,3,1,2928.0,758081.6000000238,7016,VNB,B,1
2,test,3,0.0,2-Back,1,z,Tue Sep 03 2024 09:34:19 GMT-0500 (Central Daylight Time),763492.0,011_m_f_d_a.png,O,z,1465,4,1,2478.5,761013.5,7016,VNB,B,2
3,test,3,1.0,2-Back,1,m,Tue Sep 03 2024 09:34:19 GMT-0500 (Central Daylight Time),765857.9000000358,016_y_m_n_a.png,O,m,1333,5,1,2363.0,763494.9000000358,7016,VNB,B,3
3,test,3,0.0,2-Back,0,m,Tue Sep 03 2024 09:34:19 GMT-0500 (Central Daylight Time),768057.1000000238,004_o_m_h_a.png,O,z,1168,6,1,2195.600000023842,765861.5,7016,VNB,B,4
4,test,3,0.0,2-Back,1,z,Tue Sep 03 2024 09:34:19 GMT-0500 (Central Daylight Time),770490.1000000238,020_y_f_n_a.png,O,z,1317,7,1,2429.199999988079,768060.9000000358,7016,VNB,B,5
5,test,3,1.0,2-Back,1,m,Tue Sep 03 2024 09:34:19 GMT-0500 (Central Daylight Time),772639.0,007_m_m_d_a.png,O,m,1121,8,1,2145.0,770494.0,7016,VNB,B,6
6,test,3,0.0,2-Back,1,m,Tue Sep 03 2024 09:34:19 GMT-0500 (Central Daylight Time),774788.4000000358,016_y_m_d_a.png,O,m,1131,9,1,2146.199999988079,772642.2000000477,7016,VNB,B,7
7,test,3,0.0,2-Back,1,m,Tue Sep 03 2024 09:34:19 GMT-0500 (Central Daylight Time),776955.9000000358,005_o_f_h_a.png,O,m,1134,10,1,2164.400000035763,774791.5,7016,VNB,B,8
8,test,3,1.0,2-Back,1,m,Tue Sep 03 2024 09:34:19 GMT-0500 (Central Daylight Time),778937.2000000477,011_m_f_n_a.png,O,m,952,11,1,1977.7000000476837,776959.5,7016,VNB,B,9
9,test,3,1.0,2-Back,1,z,Tue Sep 03 2024 09:34:19 GMT-0500 (Central Daylight Time),781169.7000000477,007_m_m_h_a.png,O,z,1150,12,1,2228.400000035763,778941.3000000119,7016,VNB,B,10
10,test,3,0.0,2-Back,1,m,Tue Sep 03 2024 09:34:19 GMT-0500 (Central Daylight Time),783235.5,020_y_f_d_a.png,O,m,998,13,1,2061.699999988079,781173.8000000119,7016,VNB,B,11
11,test,3,0.0,2-Back,1,m,Tue Sep 03 2024 09:34:19 GMT-0500 (Central Daylight Time),785452.9000000358,005_o_f_n_a.png,O,m,1148,14,1,2213.800000011921,783239.1000000238,7016,VNB,B,12
12,test,3,0.0,2-Back,1,z,Tue Sep 03 2024 09:34:19 GMT-0500 (Central Daylight Time),787951.2000000477,004_o_m_d_a.png,O,z,1395,15,1,2494.2000000476837,785457.0,7016,VNB,B,13
13,test,3,1.0,2-Back,1,m,Tue Sep 03 2024 09:34:19 GMT-0500 (Central Daylight Time),789968.1000000238,011_m_f_h_a.png,O,m,937,16,1,2013.199999988079,787954.9000000358,7016,VNB,B,14
14,test,3,0.0,2-Back,1,m,Tue Sep 03 2024 09:34:19 GMT-0500 (Central Daylight Time),791982.9000000358,007_m_m_n_a.png,O,m,944,17,1,2011.1000000238419,789971.8000000119,7016,VNB,B,15
14,test,3,0.0,2-Back,0,z,Tue Sep 03 2024 09:34:19 GMT-0500 (Central Daylight Time),794216.8000000119,016_y_m_h_a.png,O,m,1160,18,1,2230.099999964237,791986.7000000477,7016,VNB,B,16
0,test,4,0.0,2-Back,,,Tue Sep 03 2024 09:34:19 GMT-0500 (Central Daylight Time),794216.8000000119,011_m_f_n_a.png,O,space,3945,1,1,2230.099999964237,791986.7000000477,7016,VNB,B,0
0,test,4,0.0,2-Back,,,Tue Sep 03 2024 09:34:19 GMT-0500 (Central Daylight Time),794216.8000000119,004_o_m_n_a.png,O,space,3945,2,1,2230.099999964237,791986.7000000477,7016,VNB,B,0
1,test,4,1.0,2-Back,1,m,Tue Sep 03 2024 09:34:19 GMT-0500 (Central Daylight Time),805728.7000000477,016_y_m_h_a.png,O,m,1269,3,1,2295.400000035763,803433.3000000119,7016,VNB,B,1
2,test,4,1.0,2-Back,1,m,Tue Sep 03 2024 09:34:19 GMT-0500 (Central Daylight Time),807994.9000000358,005_o_f_d_a.png,O,m,1233,4,1,2262.300000011921,805732.6000000238,7016,VNB,B,2
2,test,4,0.0,2-Back,0,z,Tue Sep 03 2024 09:34:19 GMT-0500 (Central Daylight Time),810510.4000000358,004_o_m_h_a.png,O,m,1487,5,1,2511.600000023842,807998.8000000119,7016,VNB,B,3
3,test,4,0.0,2-Back,1,m,Tue Sep 03 2024 09:34:19 GMT-0500 (Central Daylight Time),812659.7000000477,007_m_m_n_a.png,O,m,1132,6,1,2145.7000000476837,810514.0,7016,VNB,B,4
4,test,4,0.0,2-Back,1,m,Tue Sep 03 2024 09:34:19 GMT-0500 (Central Daylight Time),815325.7000000477,011_m_f_d_a.png,O,m,1639,7,1,2662.800000011921,812662.9000000358,7016,VNB,B,5
5,test,4,0.0,2-Back,1,z,Tue Sep 03 2024 09:34:19 GMT-0500 (Central Daylight Time),817458.4000000358,020_y_f_n_a.png,O,z,1107,8,1,2129.400000035763,815329.0,7016,VNB,B,6
6,test,4,1.0,2-Back,1,m,Tue Sep 03 2024 09:34:19 GMT-0500 (Central Daylight Time),819491.0,005_o_f_h_a.png,O,m,1000,9,1,2028.699999988079,817462.3000000119,7016,VNB,B,7
7,test,4,0.0,2-Back,1,m,Tue Sep 03 2024 09:34:19 GMT-0500 (Central Daylight Time),821607.0,007_m_m_h_a.png,O,m,1087,10,1,2112.399999976158,819494.6000000238,7016,VNB,B,8
8,test,4,0.0,2-Back,1,m,Tue Sep 03 2024 09:34:19 GMT-0500 (Central Daylight Time),823854.0,020_y_f_d_a.png,O,m,1083,11,1,2243.399999976158,821610.6000000238,7016,VNB,B,9
9,test,4,0.0,2-Back,1,m,Tue Sep 03 2024 09:34:19 GMT-0500 (Central Daylight Time),825822.6000000238,016_y_m_n_a.png,O,m,946,12,1,1965.199999988079,823857.4000000358,7016,VNB,B,10
10,test,4,0.0,2-Back,1,z,Tue Sep 03 2024 09:34:19 GMT-0500 (Central Daylight Time),827671.8000000119,004_o_m_d_a.png,O,z,827,13,1,1845.300000011921,825826.5,7016,VNB,B,11
11,test,4,1.0,2-Back,1,m,Tue Sep 03 2024 09:34:19 GMT-0500 (Central Daylight Time),830137.8000000119,011_m_f_h_a.png,O,m,1384,14,1,2462.199999988079,827675.6000000238,7016,VNB,B,12
12,test,4,1.0,2-Back,1,m,Tue Sep 03 2024 09:34:19 GMT-0500 (Central Daylight Time),832303.7000000477,020_y_f_h_a.png,O,m,1095,15,1,2162.300000011921,830141.4000000358,7016,VNB,B,13
13,test,4,0.0,2-Back,1,m,Tue Sep 03 2024 09:34:19 GMT-0500 (Central Daylight Time),834486.3000000119,005_o_f_n_a.png,O,m,1078,16,1,2179.5,832306.8000000119,7016,VNB,B,14
14,test,4,0.0,2-Back,1,m,Tue Sep 03 2024 09:34:19 GMT-0500 (Central Daylight Time),836619.0,016_y_m_d_a.png,O,m,1058,17,1,2128.599999964237,834490.4000000358,7016,VNB,B,15
15,test,4,1.0,2-Back,1,m,Tue Sep 03 2024 09:34:19 GMT-0500 (Central Daylight Time),838635.2000000477,007_m_m_d_a.png,O,m,991,18,1,2012.4000000357628,836622.8000000119,7016,VNB,B,16
0,test,5,1.0,2-Back,,,Tue Sep 03 2024 09:34:19 GMT-0500 (Central Daylight Time),838635.2000000477,020_y_f_d_a.png,O,space,1638,1,1,2012.4000000357628,836622.8000000119,7016,VNB,B,0
0,test,5,1.0,2-Back,,,Tue Sep 03 2024 09:34:19 GMT-0500 (Central Daylight Time),838635.2000000477,005_o_f_h_a.png,O,space,1638,2,1,2012.4000000357628,836622.8000000119,7016,VNB,B,0
1,test,5,1.0,2-Back,1,z,Tue Sep 03 2024 09:34:19 GMT-0500 (Central Daylight Time),847715.5,004_o_m_d_a.png,O,z,1158,3,1,2178.599999964237,845536.9000000358,7016,VNB,B,1
2,test,5,1.0,2-Back,1,m,Tue Sep 03 2024 09:34:19 GMT-0500 (Central Daylight Time),849864.9000000358,011_m_f_n_a.png,O,m,1127,4,1,2145.900000035763,847719.0,7016,VNB,B,2
3,test,5,0.0,2-Back,1,m,Tue Sep 03 2024 09:34:19 GMT-0500 (Central Daylight Time),852363.9000000358,007_m_m_h_a.png,O,m,1482,5,1,2495.400000035763,849868.5,7016,VNB,B,3
4,test,5,0.0,2-Back,1,z,Tue Sep 03 2024 09:34:19 GMT-0500 (Central Daylight Time),854763.2000000477,020_y_f_n_a.png,O,z,1382,6,1,2396.300000011921,852366.9000000358,7016,VNB,B,4
5,test,5,0.0,2-Back,1,m,Tue Sep 03 2024 09:34:19 GMT-0500 (Central Daylight Time),856879.1000000238,005_o_f_d_a.png,O,m,1095,7,1,2112.0,854767.1000000238,7016,VNB,B,5
5,test,5,0.0,2-Back,0,m,Tue Sep 03 2024 09:34:19 GMT-0500 (Central Daylight Time),858828.8000000119,004_o_m_h_a.png,O,z,923,8,1,1945.5,856883.3000000119,7016,VNB,B,6
5,test,5,1.0,2-Back,0,z,Tue Sep 03 2024 09:34:19 GMT-0500 (Central Daylight Time),861077.9000000358,011_m_f_d_a.png,O,m,1180,9,1,2245.300000011921,858832.6000000238,7016,VNB,B,7
6,test,5,0.0,2-Back,1,m,Tue Sep 03 2024 09:34:19 GMT-0500 (Central Daylight Time),863177.3000000119,016_y_m_n_a.png,O,m,1076,10,1,2095.800000011921,861081.5,7016,VNB,B,8
6,test,5,0.0,2-Back,0,m,Tue Sep 03 2024 09:34:19 GMT-0500 (Central Daylight Time),864993.5,007_m_m_n_a.png,O,z,735,11,1,1812.2999999523163,863181.2000000477,7016,VNB,B,9
7,test,5,0.0,2-Back,1,m,Tue Sep 03 2024 09:34:19 GMT-0500 (Central Daylight Time),867259.7000000477,020_y_f_h_a.png,O,m,1191,12,1,2262.300000011921,864997.4000000358,7016,VNB,B,10
8,test,5,0.0,2-Back,1,m,Tue Sep 03 2024 09:34:19 GMT-0500 (Central Daylight Time),869225.7000000477,016_y_m_d_a.png,O,m,885,13,1,1962.2000000476837,867263.5,7016,VNB,B,11
9,test,5,1.0,2-Back,1,z,Tue Sep 03 2024 09:34:19 GMT-0500 (Central Daylight Time),871074.6000000238,011_m_f_h_a.png,O,z,782,14,1,1845.199999988079,869229.4000000358,7016,VNB,B,12
10,test,5,0.0,2-Back,1,m,Tue Sep 03 2024 09:34:19 GMT-0500 (Central Daylight Time),873090.9000000358,004_o_m_n_a.png,O,m,908,15,1,2010.5,871080.4000000358,7016,VNB,B,13
10,test,5,0.0,2-Back,0,m,Tue Sep 03 2024 09:34:19 GMT-0500 (Central Daylight Time),875106.9000000358,007_m_m_d_a.png,O,z,941,16,1,2012.199999988079,873094.7000000477,7016,VNB,B,14
11,test,5,0.0,2-Back,1,z,Tue Sep 03 2024 09:34:19 GMT-0500 (Central Daylight Time),877256.2000000477,005_o_f_n_a.png,O,z,1069,17,1,2145.5,875110.7000000477,7016,VNB,B,15
12,test,5,1.0,2-Back,1,m,Tue Sep 03 2024 09:34:19 GMT-0500 (Central Daylight Time),879305.7000000477,016_y_m_h_a.png,O,m,976,18,1,2045.4000000357628,877260.3000000119,7016,VNB,B,16
