block_c  block_dur condition    countdown                                                  datetime  endtime list multichar_response project  response  response_time session_number  start_end  starttime subject_id task task_vers  trial
   None        NaN      None          NaN Tue Sep 24 2024 17:14:58 GMT-0500 (Central Daylight Time)      NaN None               None       O     space           1003              1        NaN        NaN       7019   WL         C    NaN
   prac        NaN         0          NaN Tue Sep 24 2024 17:14:58 GMT-0500 (Central Daylight Time)      NaN   NA                  b       O         b           4402              1        NaN        NaN       7019   WL         C    1.0
   prac        NaN         0          NaN Tue Sep 24 2024 17:14:58 GMT-0500 (Central Daylight Time)      NaN   NA                 bo       O         o            375              1        NaN        NaN       7019   WL         C    1.0
   prac        NaN         0          NaN Tue Sep 24 2024 17:14:58 GMT-0500 (Central Daylight Time)      NaN   NA                boo       O         o            201              1        NaN        NaN       7019   WL         C    1.0
   prac        NaN         0          NaN Tue Sep 24 2024 17:14:58 GMT-0500 (Central Daylight Time)      NaN   NA               boos       O         s            144              1        NaN        NaN       7019   WL         C    1.0
   prac        NaN         0          NaN Tue Sep 24 2024 17:14:58 GMT-0500 (Central Daylight Time)      NaN   NA              boost       O         t            194              1        NaN        NaN       7019   WL         C    1.0
   prac        NaN         0          NaN Tue Sep 24 2024 17:14:58 GMT-0500 (Central Daylight Time)      NaN   NA         boostenter       O     enter           3403              1        NaN        NaN       7019   WL         C    1.0
      1      1.367     learn 58633.000135 Tue Sep 24 2024 17:14:58 GMT-0500 (Central Daylight Time) 152319.8    A                  t       O         t           1357              1     1366.4   150953.4       7019   WL         C    1.0
      1      1.785     learn 58215.000153 Tue Sep 24 2024 17:14:58 GMT-0500 (Central Daylight Time) 152737.4    A                 to       O         o            405              1     1784.0   150953.4       7019   WL         C    1.0
      1      3.399     learn 56601.000071 Tue Sep 24 2024 17:14:58 GMT-0500 (Central Daylight Time) 154352.1    A                tow       O         w           1596              1     3398.7   150953.4       7019   WL         C    1.0
      1      3.666     learn 56334.000111 Tue Sep 24 2024 17:14:58 GMT-0500 (Central Daylight Time) 154618.6    A               towe       O         e            253              1     3665.2   150953.4       7019   WL         C    1.0
      1      3.800     learn 56200.000048 Tue Sep 24 2024 17:14:58 GMT-0500 (Central Daylight Time) 154752.2    A              tower       O         r            115              1     3798.8   150953.4       7019   WL         C    1.0
      1      8.648     learn 51351.999998 Tue Sep 24 2024 17:14:58 GMT-0500 (Central Daylight Time) 159600.6    A         towerenter       O     enter           4830              1     8647.2   150953.4       7019   WL         C    1.0
      1      9.557     learn 50443.000078 Tue Sep 24 2024 17:14:58 GMT-0500 (Central Daylight Time) 160509.6    A                  w       O         w            903              1      908.3   159601.3       7019   WL         C    2.0
      1      9.682     learn 50318.000078 Tue Sep 24 2024 17:14:58 GMT-0500 (Central Daylight Time) 160634.7    A                 wh       O         h            119              1     1033.4   159601.3       7019   WL         C    2.0
      1      9.831     learn 50169.000149 Tue Sep 24 2024 17:14:58 GMT-0500 (Central Daylight Time) 160783.4    A                whe       O         e            139              1     1182.1   159601.3       7019   WL         C    2.0
      1     10.197     learn 49803.000212 Tue Sep 24 2024 17:14:58 GMT-0500 (Central Daylight Time) 161150.0    A               whea       O         a            351              1     1548.7   159601.3       7019   WL         C    2.0
      1     10.431     learn 49569.000006 Tue Sep 24 2024 17:14:58 GMT-0500 (Central Daylight Time) 161383.3    A              wheat       O         t            224              1     1782.0   159601.3       7019   WL         C    2.0
      1     10.930     learn 49070.000172 Tue Sep 24 2024 17:14:58 GMT-0500 (Central Daylight Time) 161883.1    A         wheatenter       O     enter            478              1     2281.8   159601.3       7019   WL         C    2.0
      1     12.846     learn 47154.000044 Tue Sep 24 2024 17:14:58 GMT-0500 (Central Daylight Time) 163799.1    A                  q       O         q           1899              1     1915.4   161883.7       7019   WL         C    3.0
      1     13.046     learn 46953.999996 Tue Sep 24 2024 17:14:58 GMT-0500 (Central Daylight Time) 163999.1    A                 qu       O         u            191              1     2115.4   161883.7       7019   WL         C    3.0
      1     13.280     learn 46720.000029 Tue Sep 24 2024 17:14:58 GMT-0500 (Central Daylight Time) 164232.3    A                que       O         e            223              1     2348.6   161883.7       7019   WL         C    3.0
      1     13.513     learn 46486.999989 Tue Sep 24 2024 17:14:58 GMT-0500 (Central Daylight Time) 164465.6    A               quee       O         e            212              1     2581.9   161883.7       7019   WL         C    3.0
      1     13.696     learn 46304.000139 Tue Sep 24 2024 17:14:58 GMT-0500 (Central Daylight Time) 164648.9    A              queen       O         n            173              1     2765.2   161883.7       7019   WL         C    3.0
      1     14.346     learn 45654.000044 Tue Sep 24 2024 17:14:58 GMT-0500 (Central Daylight Time) 165298.8    A         queenenter       O     enter            637              1     3415.1   161883.7       7019   WL         C    3.0
      1     15.146     learn 44854.000092 Tue Sep 24 2024 17:14:58 GMT-0500 (Central Daylight Time) 166098.4    A                  s       O         s            787              1      799.2   165299.2       7019   WL         C    4.0
      1     15.362     learn 44638.000011 Tue Sep 24 2024 17:14:58 GMT-0500 (Central Daylight Time) 166315.0    A                 su       O         u            204              1     1015.8   165299.2       7019   WL         C    4.0
      1     15.762     learn 44238.000154 Tue Sep 24 2024 17:14:58 GMT-0500 (Central Daylight Time) 166715.0    A                sug       O         g            394              1     1415.8   165299.2       7019   WL         C    4.0
      1     15.929     learn 44071.000099 Tue Sep 24 2024 17:14:58 GMT-0500 (Central Daylight Time) 166881.7    A               suga       O         a            147              1     1582.5   165299.2       7019   WL         C    4.0
      1     16.529     learn 43471.000195 Tue Sep 24 2024 17:14:58 GMT-0500 (Central Daylight Time) 167481.3    A              sugar       O         r            581              1     2182.1   165299.2       7019   WL         C    4.0
      1     16.862     learn 43138.000011 Tue Sep 24 2024 17:14:58 GMT-0500 (Central Daylight Time) 167814.6    A         sugarenter       O     enter            317              1     2515.4   165299.2       7019   WL         C    4.0
      1     17.462     learn 42538.000107 Tue Sep 24 2024 17:14:58 GMT-0500 (Central Daylight Time) 168414.4    A                  h       O         h            591              1      599.4   167815.0       7019   WL         C    5.0
      1     17.578     learn 42422.000170 Tue Sep 24 2024 17:14:58 GMT-0500 (Central Daylight Time) 168530.8    A                 ho       O         o            112              1      715.8   167815.0       7019   WL         C    5.0
      1     17.812     learn 42188.000202 Tue Sep 24 2024 17:14:58 GMT-0500 (Central Daylight Time) 168764.3    A                hom       O         m            219              1      949.3   167815.0       7019   WL         C    5.0
      1     18.011     learn 41989.000082 Tue Sep 24 2024 17:14:58 GMT-0500 (Central Daylight Time) 168964.1    A               home       O         e            194              1     1149.1   167815.0       7019   WL         C    5.0
      1     18.578     learn 41422.000170 Tue Sep 24 2024 17:14:58 GMT-0500 (Central Daylight Time) 169531.0    A          homeenter       O     enter            546              1     1716.0   167815.0       7019   WL         C    5.0
      1     19.161     learn 40838.999987 Tue Sep 24 2024 17:14:58 GMT-0500 (Central Daylight Time) 170113.8    A                  b       O         b            571              1      582.4   169531.4       7019   WL         C    6.0
      1     19.328     learn 40672.000170 Tue Sep 24 2024 17:14:58 GMT-0500 (Central Daylight Time) 170280.6    A                 bo       O         o            155              1      749.2   169531.4       7019   WL         C    6.0
      1     19.611     learn 40389.000177 Tue Sep 24 2024 17:14:58 GMT-0500 (Central Daylight Time) 170563.6    A                boy       O         y            278              1     1032.2   169531.4       7019   WL         C    6.0
      1     20.061     learn 39939.000130 Tue Sep 24 2024 17:14:58 GMT-0500 (Central Daylight Time) 171013.7    A           boyenter       O     enter            435              1     1482.3   169531.4       7019   WL         C    6.0
      1     20.527     learn 39473.000050 Tue Sep 24 2024 17:14:58 GMT-0500 (Central Daylight Time) 171480.0    A                  d       O         d            455              1      465.9   171014.1       7019   WL         C    7.0
      1     20.611     learn 39389.000177 Tue Sep 24 2024 17:14:58 GMT-0500 (Central Daylight Time) 171563.3    A                 do       O         o             77              1      549.2   171014.1       7019   WL         C    7.0
      1     20.844     learn 39156.000137 Tue Sep 24 2024 17:14:58 GMT-0500 (Central Daylight Time) 171796.5    A                doc       O         c            219              1      782.4   171014.1       7019   WL         C    7.0
      1     21.060     learn 38940.000057 Tue Sep 24 2024 17:14:58 GMT-0500 (Central Daylight Time) 172013.1    A               doct       O         t            210              1      999.0   171014.1       7019   WL         C    7.0
      1     21.160     learn 38840.000153 Tue Sep 24 2024 17:14:58 GMT-0500 (Central Daylight Time) 172113.3    A              docto       O         o             81              1     1099.2   171014.1       7019   WL         C    7.0
      1     21.294     learn 38706.000090 Tue Sep 24 2024 17:14:58 GMT-0500 (Central Daylight Time) 172246.4    A             doctor       O         r            125              1     1232.3   171014.1       7019   WL         C    7.0
      1     21.677     learn 38323.000193 Tue Sep 24 2024 17:14:58 GMT-0500 (Central Daylight Time) 172630.0    A        doctorenter       O     enter            368              1     1615.9   171014.1       7019   WL         C    7.0
      1     22.010     learn 37990.000010 Tue Sep 24 2024 17:14:58 GMT-0500 (Central Daylight Time) 172962.8    A                  s       O         s            327              1      332.4   172630.4       7019   WL         C    8.0
      1     22.210     learn 37790.000200 Tue Sep 24 2024 17:14:58 GMT-0500 (Central Daylight Time) 173163.1    A                 sh       O         h            187              1      532.7   172630.4       7019   WL         C    8.0
      1     22.344     learn 37656.000137 Tue Sep 24 2024 17:14:58 GMT-0500 (Central Daylight Time) 173296.4    A                sho       O         o            123              1      666.0   172630.4       7019   WL         C    8.0
      1     22.527     learn 37473.000050 Tue Sep 24 2024 17:14:58 GMT-0500 (Central Daylight Time) 173479.6    A               shor       O         r            166              1      849.2   172630.4       7019   WL         C    8.0
      1     22.610     learn 37390.000105 Tue Sep 24 2024 17:14:58 GMT-0500 (Central Daylight Time) 173563.0    A              shore       O         e             79              1      932.6   172630.4       7019   WL         C    8.0
      1     23.026     learn 36973.999977 Tue Sep 24 2024 17:14:58 GMT-0500 (Central Daylight Time) 173979.1    A         shoreenter       O     enter            411              1     1348.7   172630.4       7019   WL         C    8.0
      1     24.393     learn 35607.000113 Tue Sep 24 2024 17:14:58 GMT-0500 (Central Daylight Time) 175345.7    A                  c       O         c           1347              1     1366.3   173979.4       7019   WL         C    9.0
      1     24.510     learn 35490.000010 Tue Sep 24 2024 17:14:58 GMT-0500 (Central Daylight Time) 175462.3    A                 ca       O         a            109              1     1482.9   173979.4       7019   WL         C    9.0
      1     24.743     learn 35257.000208 Tue Sep 24 2024 17:14:58 GMT-0500 (Central Daylight Time) 175695.5    A                cat       O         t            216              1     1716.1   173979.4       7019   WL         C    9.0
      1     24.876     learn 35124.000072 Tue Sep 24 2024 17:14:58 GMT-0500 (Central Daylight Time) 175828.8    A               catt       O         t            126              1     1849.4   173979.4       7019   WL         C    9.0
      1     25.093     learn 34907.000065 Tue Sep 24 2024 17:14:58 GMT-0500 (Central Daylight Time) 176045.4    A              cattl       O         l            202              1     2066.0   173979.4       7019   WL         C    9.0
      1     25.226     learn 34774.000168 Tue Sep 24 2024 17:14:58 GMT-0500 (Central Daylight Time) 176178.6    A             cattle       O         e            112              1     2199.2   173979.4       7019   WL         C    9.0
      1     25.609     learn 34391.000032 Tue Sep 24 2024 17:14:58 GMT-0500 (Central Daylight Time) 176561.8    A        cattleenter       O     enter            372              1     2582.4   173979.4       7019   WL         C    9.0
      1     30.391     learn 29609.000206 Tue Sep 24 2024 17:14:58 GMT-0500 (Central Daylight Time) 181343.7    A              enter       O     enter           4765              1     4781.6   176562.1       7019   WL         C   10.0
      1     31.074     learn 28926.000118 Tue Sep 24 2024 17:14:58 GMT-0500 (Central Daylight Time) 182026.8    A              enter       O     enter            671              1      682.7   181344.1       7019   WL         C   11.0
      1     31.540     learn 28460.000038 Tue Sep 24 2024 17:14:58 GMT-0500 (Central Daylight Time) 182493.3    A              enter       O     enter            452              1      466.1   182027.2       7019   WL         C   12.0
      1     32.040     learn 27960.000038 Tue Sep 24 2024 17:14:58 GMT-0500 (Central Daylight Time) 182993.1    A              enter       O     enter            489              1      499.4   182493.7       7019   WL         C   13.0
      1     32.407     learn 27593.000174 Tue Sep 24 2024 17:14:58 GMT-0500 (Central Daylight Time) 183359.9    A              enter       O     enter            357              1      366.3   182993.6       7019   WL         C   14.0
      1     32.740     learn 27259.999990 Tue Sep 24 2024 17:14:58 GMT-0500 (Central Daylight Time) 183693.0    A              enter       O     enter            326              1      332.7   183360.3       7019   WL         C   15.0
      2      1.433     learn 58567.000151 Tue Sep 24 2024 17:14:58 GMT-0500 (Central Daylight Time) 253037.8    A                  t       O         t           1426              1     1432.6   251605.2       7019   WL         C    1.0
      2      1.583     learn 58417.000055 Tue Sep 24 2024 17:14:58 GMT-0500 (Central Daylight Time) 253187.7    A                 to       O         o            136              1     1582.5   251605.2       7019   WL         C    1.0
      2      1.799     learn 58200.999975 Tue Sep 24 2024 17:14:58 GMT-0500 (Central Daylight Time) 253404.4    A                tow       O         w            203              1     1799.2   251605.2       7019   WL         C    1.0
      2      1.899     learn 58101.000071 Tue Sep 24 2024 17:14:58 GMT-0500 (Central Daylight Time) 253504.4    A               towe       O         e             90              1     1899.2   251605.2       7019   WL         C    1.0
      2      2.049     learn 57950.999975 Tue Sep 24 2024 17:14:58 GMT-0500 (Central Daylight Time) 253654.2    A              tower       O         r            134              1     2049.0   251605.2       7019   WL         C    1.0
      2      2.449     learn 57551.000118 Tue Sep 24 2024 17:14:58 GMT-0500 (Central Daylight Time) 254054.0    A         towerenter       O     enter            391              1     2448.8   251605.2       7019   WL         C    1.0
      2      2.961     learn 57039.000034 Tue Sep 24 2024 17:14:58 GMT-0500 (Central Daylight Time) 254566.0    A                  w       O         w            508              1      511.7   254054.3       7019   WL         C    2.0
      2      3.234     learn 56766.000032 Tue Sep 24 2024 17:14:58 GMT-0500 (Central Daylight Time) 254839.1    A                 wh       O         h            263              1      784.8   254054.3       7019   WL         C    2.0
      2      3.399     learn 56601.000071 Tue Sep 24 2024 17:14:58 GMT-0500 (Central Daylight Time) 255004.0    A                whe       O         e            152              1      949.7   254054.3       7019   WL         C    2.0
      2      3.582     learn 56417.999983 Tue Sep 24 2024 17:14:58 GMT-0500 (Central Daylight Time) 255187.2    A               whea       O         a            170              1     1132.9   254054.3       7019   WL         C    2.0
      2      3.765     learn 56235.000134 Tue Sep 24 2024 17:14:58 GMT-0500 (Central Daylight Time) 255370.5    A              wheat       O         t            162              1     1316.2   254054.3       7019   WL         C    2.0
      2      3.982     learn 56018.000126 Tue Sep 24 2024 17:14:58 GMT-0500 (Central Daylight Time) 255587.0    A         wheatenter       O     enter            212              1     1532.7   254054.3       7019   WL         C    2.0
      2      4.515     learn 55485.000134 Tue Sep 24 2024 17:14:58 GMT-0500 (Central Daylight Time) 256120.2    A                  q       O         q            523              1      532.9   255587.3       7019   WL         C    3.0
      2      4.698     learn 55302.000046 Tue Sep 24 2024 17:14:58 GMT-0500 (Central Daylight Time) 256303.6    A                 qu       O         u            166              1      716.3   255587.3       7019   WL         C    3.0
      2      4.815     learn 55184.999943 Tue Sep 24 2024 17:14:58 GMT-0500 (Central Daylight Time) 256420.1    A                que       O         e            110              1      832.8   255587.3       7019   WL         C    3.0
      2      4.982     learn 55018.000126 Tue Sep 24 2024 17:14:58 GMT-0500 (Central Daylight Time) 256587.3    A               quee       O         e            162              1     1000.0   255587.3       7019   WL         C    3.0
      2      5.148     learn 54851.999998 Tue Sep 24 2024 17:14:58 GMT-0500 (Central Daylight Time) 256753.4    A              queen       O         n            155              1     1166.1   255587.3       7019   WL         C    3.0
      2      5.631     learn 54368.999958 Tue Sep 24 2024 17:14:58 GMT-0500 (Central Daylight Time) 257236.5    A         queenenter       O     enter            469              1     1649.2   255587.3       7019   WL         C    3.0
      2      6.181     learn 53819.000006 Tue Sep 24 2024 17:14:58 GMT-0500 (Central Daylight Time) 257786.5    A                  s       O         s            530              1      549.7   257236.8       7019   WL         C    4.0
      2      6.282     learn 53717.999935 Tue Sep 24 2024 17:14:58 GMT-0500 (Central Daylight Time) 257887.3    A                 su       O         u             91              1      650.5   257236.8       7019   WL         C    4.0
      2      6.548     learn 53452.000141 Tue Sep 24 2024 17:14:58 GMT-0500 (Central Daylight Time) 258152.6    A                sug       O         g            247              1      915.8   257236.8       7019   WL         C    4.0
      2      6.798     learn 53202.000141 Tue Sep 24 2024 17:14:58 GMT-0500 (Central Daylight Time) 258402.8    A               suga       O         a            238              1     1166.0   257236.8       7019   WL         C    4.0
      2      6.964     learn 53036.000013 Tue Sep 24 2024 17:14:58 GMT-0500 (Central Daylight Time) 258569.6    A              sugar       O         r            156              1     1332.8   257236.8       7019   WL         C    4.0
      2      7.198     learn 52802.000046 Tue Sep 24 2024 17:14:58 GMT-0500 (Central Daylight Time) 258802.7    A         sugarenter       O     enter            228              1     1565.9   257236.8       7019   WL         C    4.0
      2      7.631     learn 52368.999958 Tue Sep 24 2024 17:14:58 GMT-0500 (Central Daylight Time) 259235.9    A                  h       O         h            420              1      432.9   258803.0       7019   WL         C    5.0
      2      7.764     learn 52236.000061 Tue Sep 24 2024 17:14:58 GMT-0500 (Central Daylight Time) 259369.1    A                 ho       O         o            122              1      566.1   258803.0       7019   WL         C    5.0
      2      7.947     learn 52052.999973 Tue Sep 24 2024 17:14:58 GMT-0500 (Central Daylight Time) 259552.5    A                hom       O         m            165              1      749.5   258803.0       7019   WL         C    5.0
      2      8.080     learn 51920.000076 Tue Sep 24 2024 17:14:58 GMT-0500 (Central Daylight Time) 259685.6    A               home       O         e            125              1      882.6   258803.0       7019   WL         C    5.0
      2      8.564     learn 51436.000109 Tue Sep 24 2024 17:14:58 GMT-0500 (Central Daylight Time) 260168.9    A          homeenter       O     enter            473              1     1365.9   258803.0       7019   WL         C    5.0
      2      8.964     learn 51036.000013 Tue Sep 24 2024 17:14:58 GMT-0500 (Central Daylight Time) 260568.7    A                  b       O         b            390              1      399.5   260169.2       7019   WL         C    6.0
      2      9.080     learn 50920.000076 Tue Sep 24 2024 17:14:58 GMT-0500 (Central Daylight Time) 260685.4    A                 bo       O         o            110              1      516.2   260169.2       7019   WL         C    6.0
      2      9.297     learn 50703.000069 Tue Sep 24 2024 17:14:58 GMT-0500 (Central Daylight Time) 260902.0    A                boy       O         y            201              1      732.8   260169.2       7019   WL         C    6.0
      2      9.680     learn 50319.999933 Tue Sep 24 2024 17:14:58 GMT-0500 (Central Daylight Time) 261285.4    A           boyenter       O     enter            377              1     1116.2   260169.2       7019   WL         C    6.0
      2      9.980     learn 50019.999981 Tue Sep 24 2024 17:14:58 GMT-0500 (Central Daylight Time) 261585.4    A                  d       O         d            289              1      299.7   261285.7       7019   WL         C    7.0
      2     10.098     learn 49901.999950 Tue Sep 24 2024 17:14:58 GMT-0500 (Central Daylight Time) 261703.0    A                 do       O         o            109              1      417.3   261285.7       7019   WL         C    7.0
      2     10.330     learn 49670.000076 Tue Sep 24 2024 17:14:58 GMT-0500 (Central Daylight Time) 261934.8    A                doc       O         c            223              1      649.1   261285.7       7019   WL         C    7.0
      2     10.730     learn 49269.999981 Tue Sep 24 2024 17:14:58 GMT-0500 (Central Daylight Time) 262335.0    A               doct       O         t            383              1     1049.3   261285.7       7019   WL         C    7.0
      2     10.863     learn 49137.000084 Tue Sep 24 2024 17:14:58 GMT-0500 (Central Daylight Time) 262468.2    A              docto       O         o            126              1     1182.5   261285.7       7019   WL         C    7.0
      2     10.980     learn 49019.999981 Tue Sep 24 2024 17:14:58 GMT-0500 (Central Daylight Time) 262584.8    A             doctor       O         r            105              1     1299.1   261285.7       7019   WL         C    7.0
      2     11.596     learn 48404.000044 Tue Sep 24 2024 17:14:58 GMT-0500 (Central Daylight Time) 263201.6    A        doctorenter       O     enter            597              1     1915.9   261285.7       7019   WL         C    7.0
      2     12.163     learn 47837.000132 Tue Sep 24 2024 17:14:58 GMT-0500 (Central Daylight Time) 263767.8    A                  c       O         c            549              1      566.0   263201.8       7019   WL         C    8.0
      2     12.296     learn 47703.999996 Tue Sep 24 2024 17:14:58 GMT-0500 (Central Daylight Time) 263900.9    A                 ca       O         a            127              1      699.1   263201.8       7019   WL         C    8.0
      2     12.396     learn 47604.000092 Tue Sep 24 2024 17:14:58 GMT-0500 (Central Daylight Time) 264001.2    A                cam       O         m             81              1      799.4   263201.8       7019   WL         C    8.0
      2     12.529     learn 47470.999956 Tue Sep 24 2024 17:14:58 GMT-0500 (Central Daylight Time) 264134.4    A               camp       O         p            116              1      932.6   263201.8       7019   WL         C    8.0
      2     13.079     learn 46921.000004 Tue Sep 24 2024 17:14:58 GMT-0500 (Central Daylight Time) 264684.1    A          campenter       O     enter            536              1     1482.3   263201.8       7019   WL         C    8.0
      2     13.596     learn 46404.000044 Tue Sep 24 2024 17:14:58 GMT-0500 (Central Daylight Time) 265200.7    A                  f       O         f            507              1      516.3   264684.4       7019   WL         C    9.0
      2     13.712     learn 46288.000107 Tue Sep 24 2024 17:14:58 GMT-0500 (Central Daylight Time) 265317.2    A                 fl       O         l            102              1      632.8   264684.4       7019   WL         C    9.0
      2     13.862     learn 46138.000011 Tue Sep 24 2024 17:14:58 GMT-0500 (Central Daylight Time) 265467.2    A                fla       O         a            145              1      782.8   264684.4       7019   WL         C    9.0
      2     14.029     learn 45970.999956 Tue Sep 24 2024 17:14:58 GMT-0500 (Central Daylight Time) 265633.9    A               flag       O         g            155              1      949.5   264684.4       7019   WL         C    9.0
      2     14.512     learn 45488.000154 Tue Sep 24 2024 17:14:58 GMT-0500 (Central Daylight Time) 266117.2    A          flagenter       O     enter            477              1     1432.8   264684.4       7019   WL         C    9.0
      2     14.829     learn 45171.000004 Tue Sep 24 2024 17:14:58 GMT-0500 (Central Daylight Time) 266433.7    A                  s       O         s            297              1      316.2   266117.5       7019   WL         C   10.0
      2     14.995     learn 45005.000114 Tue Sep 24 2024 17:14:58 GMT-0500 (Central Daylight Time) 266600.1    A                 sh       O         h            157              1      482.6   266117.5       7019   WL         C   10.0
      2     15.145     learn 44855.000019 Tue Sep 24 2024 17:14:58 GMT-0500 (Central Daylight Time) 266750.2    A                sho       O         o            134              1      632.7   266117.5       7019   WL         C   10.0
      2     15.278     learn 44722.000122 Tue Sep 24 2024 17:14:58 GMT-0500 (Central Daylight Time) 266883.3    A               shor       O         r            128              1      765.8   266117.5       7019   WL         C   10.0
      2     15.345     learn 44654.999971 Tue Sep 24 2024 17:14:58 GMT-0500 (Central Daylight Time) 266950.1    A              shore       O         e             58              1      832.6   266117.5       7019   WL         C   10.0
      2     15.945     learn 44055.000067 Tue Sep 24 2024 17:14:58 GMT-0500 (Central Daylight Time) 267549.8    A         shoreenter       O     enter            593              1     1432.3   266117.5       7019   WL         C   10.0
      2     16.345     learn 43654.999971 Tue Sep 24 2024 17:14:58 GMT-0500 (Central Daylight Time) 267949.8    A                  b       O         b            392              1      399.6   267550.2       7019   WL         C   11.0
      2     16.494     learn 43506.000042 Tue Sep 24 2024 17:14:58 GMT-0500 (Central Daylight Time) 268099.5    A                 bo       O         o            144              1      549.3   267550.2       7019   WL         C   11.0
      2     16.678     learn 43322.000027 Tue Sep 24 2024 17:14:58 GMT-0500 (Central Daylight Time) 268283.0    A                bod       O         d            179              1      732.8   267550.2       7019   WL         C   11.0
      2     16.861     learn 43138.999939 Tue Sep 24 2024 17:14:58 GMT-0500 (Central Daylight Time) 268466.4    A               body       O         y            171              1      916.2   267550.2       7019   WL         C   11.0
      2     17.311     learn 42689.000130 Tue Sep 24 2024 17:14:58 GMT-0500 (Central Daylight Time) 268916.1    A          bodyenter       O     enter            435              1     1365.9   267550.2       7019   WL         C   11.0
      2     20.927     learn 39072.999954 Tue Sep 24 2024 17:14:58 GMT-0500 (Central Daylight Time) 272531.8    A                  c       O         c           3602              1     3615.3   268916.5       7019   WL         C   12.0
      2     21.010     learn 38990.000010 Tue Sep 24 2024 17:14:58 GMT-0500 (Central Daylight Time) 272615.0    A                 co       O         o             75              1     3698.5   268916.5       7019   WL         C   12.0
      2     21.210     learn 38789.999962 Tue Sep 24 2024 17:14:58 GMT-0500 (Central Daylight Time) 272815.1    A                cor       O         r            191              1     3898.6   268916.5       7019   WL         C   12.0
      2     21.326     learn 38674.000025 Tue Sep 24 2024 17:14:58 GMT-0500 (Central Daylight Time) 272931.6    A               corn       O         n            103              1     4015.1   268916.5       7019   WL         C   12.0
      2     21.726     learn 38273.999929 Tue Sep 24 2024 17:14:58 GMT-0500 (Central Daylight Time) 273331.3    A          cornenter       O     enter            394              1     4414.8   268916.5       7019   WL         C   12.0
      2     25.975     learn 34025.000095 Tue Sep 24 2024 17:14:58 GMT-0500 (Central Daylight Time) 277580.1    A              enter       O     enter           4234              1     4248.5   273331.6       7019   WL         C   13.0
      2     26.842     learn 33157.999992 Tue Sep 24 2024 17:14:58 GMT-0500 (Central Daylight Time) 278446.7    A              enter       O     enter            850              1      866.2   277580.5       7019   WL         C   14.0
      2     28.807     learn 31193.000078 Tue Sep 24 2024 17:14:58 GMT-0500 (Central Daylight Time) 280412.5    A              enter       O     enter           1959              1     1965.5   278447.0       7019   WL         C   15.0
      3      1.400     learn 58599.999905 Tue Sep 24 2024 17:14:58 GMT-0500 (Central Daylight Time) 348124.7    A                  t       O         t           1386              1     1399.6   346725.1       7019   WL         C    1.0
      3      1.534     learn 58466.000080 Tue Sep 24 2024 17:14:58 GMT-0500 (Central Daylight Time) 348257.9    A                 to       O         o            113              1     1532.8   346725.1       7019   WL         C    1.0
      3      1.783     learn 58217.000008 Tue Sep 24 2024 17:14:58 GMT-0500 (Central Daylight Time) 348507.8    A                tow       O         w            236              1     1782.7   346725.1       7019   WL         C    1.0
      3      1.833     learn 58167.000055 Tue Sep 24 2024 17:14:58 GMT-0500 (Central Daylight Time) 348557.6    A               towe       O         e             34              1     1832.5   346725.1       7019   WL         C    1.0
      3      1.979     learn 58020.999908 Tue Sep 24 2024 17:14:58 GMT-0500 (Central Daylight Time) 348703.7    A              tower       O         r            141              1     1978.6   346725.1       7019   WL         C    1.0
      3      2.283     learn 57717.000008 Tue Sep 24 2024 17:14:58 GMT-0500 (Central Daylight Time) 349007.3    A         towerenter       O     enter            293              1     2282.2   346725.1       7019   WL         C    1.0
      3      2.766     learn 57233.999968 Tue Sep 24 2024 17:14:58 GMT-0500 (Central Daylight Time) 349490.7    A                  w       O         w            478              1      483.2   349007.5       7019   WL         C    2.0
      3      3.016     learn 56983.999968 Tue Sep 24 2024 17:14:58 GMT-0500 (Central Daylight Time) 349740.7    A                 wh       O         h            243              1      733.2   349007.5       7019   WL         C    2.0
      3      3.150     learn 56849.999905 Tue Sep 24 2024 17:14:58 GMT-0500 (Central Daylight Time) 349873.9    A                whe       O         e            113              1      866.4   349007.5       7019   WL         C    2.0
      3      3.334     learn 56665.999889 Tue Sep 24 2024 17:14:58 GMT-0500 (Central Daylight Time) 350058.5    A               whea       O         a            171              1     1051.0   349007.5       7019   WL         C    2.0
      3      3.583     learn 56417.000055 Tue Sep 24 2024 17:14:58 GMT-0500 (Central Daylight Time) 350307.3    A              wheat       O         t            228              1     1299.8   349007.5       7019   WL         C    2.0
      3      3.766     learn 56233.999968 Tue Sep 24 2024 17:14:58 GMT-0500 (Central Daylight Time) 350490.9    A         wheatenter       O     enter            163              1     1483.4   349007.5       7019   WL         C    2.0
      3      4.282     learn 55717.999935 Tue Sep 24 2024 17:14:58 GMT-0500 (Central Daylight Time) 351007.0    A                  q       O         q            499              1      515.8   350491.2       7019   WL         C    3.0
      3      4.433     learn 55566.999912 Tue Sep 24 2024 17:14:58 GMT-0500 (Central Daylight Time) 351157.0    A                 qu       O         u            144              1      665.8   350491.2       7019   WL         C    3.0
      3      4.583     learn 55417.000055 Tue Sep 24 2024 17:14:58 GMT-0500 (Central Daylight Time) 351307.0    A                que       O         e            129              1      815.8   350491.2       7019   WL         C    3.0
      3      4.733     learn 55266.999960 Tue Sep 24 2024 17:14:58 GMT-0500 (Central Daylight Time) 351457.1    A               quee       O         e            130              1      965.9   350491.2       7019   WL         C    3.0
      3      4.866     learn 55134.000063 Tue Sep 24 2024 17:14:58 GMT-0500 (Central Daylight Time) 351590.2    A              queen       O         n            116              1     1099.0   350491.2       7019   WL         C    3.0
      3      5.182     learn 54818.000078 Tue Sep 24 2024 17:14:58 GMT-0500 (Central Daylight Time) 351906.8    A         queenenter       O     enter            304              1     1415.6   350491.2       7019   WL         C    3.0
      3      5.615     learn 54384.999990 Tue Sep 24 2024 17:14:58 GMT-0500 (Central Daylight Time) 352339.7    A                  s       O         s            428              1      432.6   351907.1       7019   WL         C    4.0
      3      5.816     learn 54184.000015 Tue Sep 24 2024 17:14:58 GMT-0500 (Central Daylight Time) 352539.9    A                 su       O         u            187              1      632.8   351907.1       7019   WL         C    4.0
      3      6.032     learn 53967.999935 Tue Sep 24 2024 17:14:58 GMT-0500 (Central Daylight Time) 352756.6    A                sug       O         g            203              1      849.5   351907.1       7019   WL         C    4.0
      3      6.182     learn 53818.000078 Tue Sep 24 2024 17:14:58 GMT-0500 (Central Daylight Time) 352906.4    A               suga       O         a            129              1      999.3   351907.1       7019   WL         C    4.0
      3      6.299     learn 53700.999975 Tue Sep 24 2024 17:14:58 GMT-0500 (Central Daylight Time) 353023.1    A              sugar       O         r            100              1     1116.0   351907.1       7019   WL         C    4.0
      3      6.532     learn 53467.999935 Tue Sep 24 2024 17:14:58 GMT-0500 (Central Daylight Time) 353256.3    A         sugarenter       O     enter            216              1     1349.2   351907.1       7019   WL         C    4.0
      3      6.915     learn 53085.000038 Tue Sep 24 2024 17:14:58 GMT-0500 (Central Daylight Time) 353639.7    A                  h       O         h            373              1      383.0   353256.7       7019   WL         C    5.0
      3      7.015     learn 52984.999895 Tue Sep 24 2024 17:14:58 GMT-0500 (Central Daylight Time) 353739.8    A                 ho       O         o             86              1      483.1   353256.7       7019   WL         C    5.0
      3      7.198     learn 52802.000046 Tue Sep 24 2024 17:14:58 GMT-0500 (Central Daylight Time) 353922.8    A                hom       O         m            170              1      666.1   353256.7       7019   WL         C    5.0
      3      7.348     learn 52651.999950 Tue Sep 24 2024 17:14:58 GMT-0500 (Central Daylight Time) 354072.8    A               home       O         e            139              1      816.1   353256.7       7019   WL         C    5.0
      3      7.665     learn 52335.000038 Tue Sep 24 2024 17:14:58 GMT-0500 (Central Daylight Time) 354389.4    A          homeenter       O     enter            302              1     1132.7   353256.7       7019   WL         C    5.0
      3      7.998     learn 52002.000093 Tue Sep 24 2024 17:14:58 GMT-0500 (Central Daylight Time) 354722.7    A                  b       O         b            312              1      332.9   354389.8       7019   WL         C    6.0
      3      8.098     learn 51901.999950 Tue Sep 24 2024 17:14:58 GMT-0500 (Central Daylight Time) 354822.4    A                 bo       O         o             91              1      432.6   354389.8       7019   WL         C    6.0
      3      8.298     learn 51701.999903 Tue Sep 24 2024 17:14:58 GMT-0500 (Central Daylight Time) 355022.4    A                boy       O         y            192              1      632.6   354389.8       7019   WL         C    6.0
      3      8.698     learn 51302.000046 Tue Sep 24 2024 17:14:58 GMT-0500 (Central Daylight Time) 355422.4    A           boyenter       O     enter            391              1     1032.6   354389.8       7019   WL         C    6.0
      3      9.214     learn 50786.000013 Tue Sep 24 2024 17:14:58 GMT-0500 (Central Daylight Time) 355938.8    A                  d       O         d            503              1      516.1   355422.7       7019   WL         C    7.0
      3      9.398     learn 50601.999998 Tue Sep 24 2024 17:14:58 GMT-0500 (Central Daylight Time) 356122.2    A                 do       O         o            172              1      699.5   355422.7       7019   WL         C    7.0
      3      9.598     learn 50401.999950 Tue Sep 24 2024 17:14:58 GMT-0500 (Central Daylight Time) 356322.0    A                doc       O         c            188              1      899.3   355422.7       7019   WL         C    7.0
      3      9.897     learn 50102.999926 Tue Sep 24 2024 17:14:58 GMT-0500 (Central Daylight Time) 356621.6    A               doct       O         t            291              1     1198.9   355422.7       7019   WL         C    7.0
      3      9.997     learn 50003.000021 Tue Sep 24 2024 17:14:58 GMT-0500 (Central Daylight Time) 356721.9    A              docto       O         o             80              1     1299.2   355422.7       7019   WL         C    7.0
      3     10.197     learn 49802.999973 Tue Sep 24 2024 17:14:58 GMT-0500 (Central Daylight Time) 356921.7    A             doctor       O         r            179              1     1499.0   355422.7       7019   WL         C    7.0
      3     10.547     learn 49453.000069 Tue Sep 24 2024 17:14:58 GMT-0500 (Central Daylight Time) 357271.9    A        doctorenter       O     enter            330              1     1849.2   355422.7       7019   WL         C    7.0
      3     11.331     learn 48668.999910 Tue Sep 24 2024 17:14:58 GMT-0500 (Central Daylight Time) 358056.0    A                  c       O         c            766              1      783.8   357272.2       7019   WL         C    8.0
      3     11.514     learn 48486.000061 Tue Sep 24 2024 17:14:58 GMT-0500 (Central Daylight Time) 358238.0    A                 ca       O         a            174              1      965.8   357272.2       7019   WL         C    8.0
      3     11.630     learn 48369.999886 Tue Sep 24 2024 17:14:58 GMT-0500 (Central Daylight Time) 358354.8    A                cam       O         m             95              1     1082.6   357272.2       7019   WL         C    8.0
      3     11.764     learn 48236.000061 Tue Sep 24 2024 17:14:58 GMT-0500 (Central Daylight Time) 358488.2    A               camp       O         p            124              1     1216.0   357272.2       7019   WL         C    8.0
      3     12.180     learn 47819.999933 Tue Sep 24 2024 17:14:58 GMT-0500 (Central Daylight Time) 358904.4    A          campenter       O     enter            406              1     1632.2   357272.2       7019   WL         C    8.0
      3     12.663     learn 47336.999893 Tue Sep 24 2024 17:14:58 GMT-0500 (Central Daylight Time) 359387.5    A                  f       O         f            476              1      482.6   358904.9       7019   WL         C    9.0
      3     12.797     learn 47203.000069 Tue Sep 24 2024 17:14:58 GMT-0500 (Central Daylight Time) 359521.1    A                 fa       O         a            122              1      616.2   358904.9       7019   WL         C    9.0
      3     12.863     learn 47137.000084 Tue Sep 24 2024 17:14:58 GMT-0500 (Central Daylight Time) 359587.4    A                fal       O         l             61              1      682.5   358904.9       7019   WL         C    9.0
      3     13.146     learn 46854.000092 Tue Sep 24 2024 17:14:58 GMT-0500 (Central Daylight Time) 359871.0    A               falg       O         g            267              1      966.1   358904.9       7019   WL         C    9.0
      3     14.081     learn 45918.999910 Tue Sep 24 2024 17:14:58 GMT-0500 (Central Daylight Time) 360805.0    A                fal       O backspace            927              1     1900.1   358904.9       7019   WL         C    9.0
      3     14.279     learn 45720.999956 Tue Sep 24 2024 17:14:58 GMT-0500 (Central Daylight Time) 361003.7    A                 fa       O backspace            193              1     2098.8   358904.9       7019   WL         C    9.0
      3     14.779     learn 45220.999956 Tue Sep 24 2024 17:14:58 GMT-0500 (Central Daylight Time) 361503.8    A                  f       O backspace            491              1     2598.9   358904.9       7019   WL         C    9.0
      3     15.112     learn 44888.000011 Tue Sep 24 2024 17:14:58 GMT-0500 (Central Daylight Time) 361836.8    A                 fl       O         l            319              1     2931.9   358904.9       7019   WL         C    9.0
      3     15.396     learn 44604.000092 Tue Sep 24 2024 17:14:58 GMT-0500 (Central Daylight Time) 362120.2    A                fla       O         a            273              1     3215.3   358904.9       7019   WL         C    9.0
      3     15.596     learn 44404.000044 Tue Sep 24 2024 17:14:58 GMT-0500 (Central Daylight Time) 362320.3    A               flag       O         g            190              1     3415.4   358904.9       7019   WL         C    9.0
      3     15.862     learn 44138.000011 Tue Sep 24 2024 17:14:58 GMT-0500 (Central Daylight Time) 362586.9    A          flagenter       O     enter            246              1     3682.0   358904.9       7019   WL         C    9.0
      3     16.312     learn 43687.999964 Tue Sep 24 2024 17:14:58 GMT-0500 (Central Daylight Time) 363036.4    A                  l       O         l            443              1      449.2   362587.2       7019   WL         C   10.0
      3     16.430     learn 43569.999933 Tue Sep 24 2024 17:14:58 GMT-0500 (Central Daylight Time) 363154.6    A                 le       O         e            113              1      567.4   362587.2       7019   WL         C   10.0
      3     16.695     learn 43305.000067 Tue Sep 24 2024 17:14:58 GMT-0500 (Central Daylight Time) 363419.7    A                let       O         t            251              1      832.5   362587.2       7019   WL         C   10.0
      3     16.895     learn 43105.000019 Tue Sep 24 2024 17:14:58 GMT-0500 (Central Daylight Time) 363619.5    A               lett       O         t            194              1     1032.3   362587.2       7019   WL         C   10.0
      3     17.328     learn 42671.999931 Tue Sep 24 2024 17:14:58 GMT-0500 (Central Daylight Time) 364053.0    A              lette       O         e            426              1     1465.8   362587.2       7019   WL         C   10.0
      3     17.412     learn 42588.000059 Tue Sep 24 2024 17:14:58 GMT-0500 (Central Daylight Time) 364136.2    A             letter       O         r             66              1     1549.0   362587.2       7019   WL         C   10.0
      3     17.878     learn 42121.999979 Tue Sep 24 2024 17:14:58 GMT-0500 (Central Daylight Time) 364602.8    A        letterenter       O     enter            462              1     2015.6   362587.2       7019   WL         C   10.0
      3     19.278     learn 40721.999884 Tue Sep 24 2024 17:14:58 GMT-0500 (Central Daylight Time) 366002.3    A                  b       O         b           1379              1     1399.3   364603.0       7019   WL         C   11.0
      3     19.394     learn 40605.999947 Tue Sep 24 2024 17:14:58 GMT-0500 (Central Daylight Time) 366118.8    A                 bo       O         o            100              1     1515.8   364603.0       7019   WL         C   11.0
      3     19.528     learn 40471.999884 Tue Sep 24 2024 17:14:58 GMT-0500 (Central Daylight Time) 366252.3    A                bod       O         d            127              1     1649.3   364603.0       7019   WL         C   11.0
      3     19.711     learn 40289.000034 Tue Sep 24 2024 17:14:58 GMT-0500 (Central Daylight Time) 366435.9    A               body       O         y            170              1     1832.9   364603.0       7019   WL         C   11.0
      3     20.094     learn 39905.999899 Tue Sep 24 2024 17:14:58 GMT-0500 (Central Daylight Time) 366818.7    A          bodyenter       O     enter            371              1     2215.7   364603.0       7019   WL         C   11.0
      3     23.093     learn 36907.000065 Tue Sep 24 2024 17:14:58 GMT-0500 (Central Daylight Time) 369817.7    A                  n       O         n           2979              1     2998.6   366819.1       7019   WL         C   12.0
      3     23.210     learn 36789.999962 Tue Sep 24 2024 17:14:58 GMT-0500 (Central Daylight Time) 369934.4    A                 na       O         a            109              1     3115.3   366819.1       7019   WL         C   12.0
      3     23.343     learn 36657.000065 Tue Sep 24 2024 17:14:58 GMT-0500 (Central Daylight Time) 370067.5    A                nai       O         i            127              1     3248.4   366819.1       7019   WL         C   12.0
      3     23.560     learn 36440.000057 Tue Sep 24 2024 17:14:58 GMT-0500 (Central Daylight Time) 370284.4    A               nail       O         l            211              1     3465.3   366819.1       7019   WL         C   12.0
      3     24.093     learn 35907.000065 Tue Sep 24 2024 17:14:58 GMT-0500 (Central Daylight Time) 370817.7    A          nailenter       O     enter            514              1     3998.6   366819.1       7019   WL         C   12.0
      3     26.875     learn 33125.000000 Tue Sep 24 2024 17:14:58 GMT-0500 (Central Daylight Time) 373599.8    A                  c       O         c           2764              1     2781.9   370817.9       7019   WL         C   13.0
      3     27.225     learn 32775.000095 Tue Sep 24 2024 17:14:58 GMT-0500 (Central Daylight Time) 373949.9    A                 ca       O         a            343              1     3132.0   370817.9       7019   WL         C   13.0
      3     30.224     learn 29776.000023 Tue Sep 24 2024 17:14:58 GMT-0500 (Central Daylight Time) 376948.9    A                cat       O         t           2985              1     6131.0   370817.9       7019   WL         C   13.0
      3     30.391     learn 29608.999968 Tue Sep 24 2024 17:14:58 GMT-0500 (Central Daylight Time) 377115.2    A               catt       O         t            162              1     6297.3   370817.9       7019   WL         C   13.0
      3     30.474     learn 29526.000023 Tue Sep 24 2024 17:14:58 GMT-0500 (Central Daylight Time) 377198.9    A              cattl       O         l             67              1     6381.0   370817.9       7019   WL         C   13.0
      3     30.674     learn 29325.999975 Tue Sep 24 2024 17:14:58 GMT-0500 (Central Daylight Time) 377398.7    A             cattle       O         e            192              1     6580.8   370817.9       7019   WL         C   13.0
      3     30.924     learn 29075.999975 Tue Sep 24 2024 17:14:58 GMT-0500 (Central Daylight Time) 377648.7    A        cattleenter       O     enter            232              1     6830.8   370817.9       7019   WL         C   13.0
      3     32.474     learn 27526.000023 Tue Sep 24 2024 17:14:58 GMT-0500 (Central Daylight Time) 379198.1    A                  c       O         c           1534              1     1549.2   377648.9       7019   WL         C   14.0
      3     32.524     learn 27476.000071 Tue Sep 24 2024 17:14:58 GMT-0500 (Central Daylight Time) 379248.0    A                 co       O         o             40              1     1599.1   377648.9       7019   WL         C   14.0
      3     32.791     learn 27209.000111 Tue Sep 24 2024 17:14:58 GMT-0500 (Central Daylight Time) 379515.0    A                cor       O         r            247              1     1866.1   377648.9       7019   WL         C   14.0
      3     32.890     learn 27109.999895 Tue Sep 24 2024 17:14:58 GMT-0500 (Central Daylight Time) 379614.8    A               corn       O         n             84              1     1965.9   377648.9       7019   WL         C   14.0
      3     33.290     learn 26710.000038 Tue Sep 24 2024 17:14:58 GMT-0500 (Central Daylight Time) 380014.8    A          cornenter       O     enter            384              1     2365.9   377648.9       7019   WL         C   14.0
      3     35.656     learn 24344.000101 Tue Sep 24 2024 17:14:58 GMT-0500 (Central Daylight Time) 382380.6    A              enter       O     enter           2360              1     2365.6   380015.0       7019   WL         C   15.0
      4      1.600     learn 58400.000095 Tue Sep 24 2024 17:14:58 GMT-0500 (Central Daylight Time) 450709.2    A                  t       O         t           1594              1     1599.4   449109.8       7019   WL         C    1.0
      4      1.750     learn 58250.000000 Tue Sep 24 2024 17:14:58 GMT-0500 (Central Daylight Time) 450859.1    A                 to       O         o            145              1     1749.3   449109.8       7019   WL         C    1.0
      4      2.016     learn 57983.999968 Tue Sep 24 2024 17:14:58 GMT-0500 (Central Daylight Time) 451125.8    A                tow       O         w            259              1     2016.0   449109.8       7019   WL         C    1.0
      4      2.066     learn 57934.000015 Tue Sep 24 2024 17:14:58 GMT-0500 (Central Daylight Time) 451175.6    A               towe       O         e             40              1     2065.8   449109.8       7019   WL         C    1.0
      4      2.216     learn 57783.999920 Tue Sep 24 2024 17:14:58 GMT-0500 (Central Daylight Time) 451325.6    A              tower       O         r            134              1     2215.8   449109.8       7019   WL         C    1.0
      4      2.549     learn 57450.999975 Tue Sep 24 2024 17:14:58 GMT-0500 (Central Daylight Time) 451658.8    A         towerenter       O     enter            320              1     2549.0   449109.8       7019   WL         C    1.0
      4      3.133     learn 56867.000103 Tue Sep 24 2024 17:14:58 GMT-0500 (Central Daylight Time) 452242.1    A                  w       O         w            571              1      583.0   451659.1       7019   WL         C    2.0
      4      3.549     learn 56450.999975 Tue Sep 24 2024 17:14:58 GMT-0500 (Central Daylight Time) 452658.4    A                 wh       O         h            404              1      999.3   451659.1       7019   WL         C    2.0
      4      3.732     learn 56267.999887 Tue Sep 24 2024 17:14:58 GMT-0500 (Central Daylight Time) 452841.8    A                whe       O         e            163              1     1182.7   451659.1       7019   WL         C    2.0
      4      3.966     learn 56033.999920 Tue Sep 24 2024 17:14:58 GMT-0500 (Central Daylight Time) 453075.2    A               whea       O         a            213              1     1416.1   451659.1       7019   WL         C    2.0
      4      4.149     learn 55851.000071 Tue Sep 24 2024 17:14:58 GMT-0500 (Central Daylight Time) 453258.4    A              wheat       O         t            170              1     1599.3   451659.1       7019   WL         C    2.0
      4      4.249     learn 55750.999928 Tue Sep 24 2024 17:14:58 GMT-0500 (Central Daylight Time) 453358.1    A         wheatenter       O     enter             91              1     1699.0   451659.1       7019   WL         C    2.0
      4      4.782     learn 55217.999935 Tue Sep 24 2024 17:14:58 GMT-0500 (Central Daylight Time) 453891.4    A                  q       O         q            520              1      533.1   453358.3       7019   WL         C    3.0
      4      4.932     learn 55068.000078 Tue Sep 24 2024 17:14:58 GMT-0500 (Central Daylight Time) 454041.5    A                 qu       O         u            139              1      683.2   453358.3       7019   WL         C    3.0
      4      5.065     learn 54934.999943 Tue Sep 24 2024 17:14:58 GMT-0500 (Central Daylight Time) 454174.7    A                que       O         e            125              1      816.4   453358.3       7019   WL         C    3.0
      4      5.232     learn 54767.999887 Tue Sep 24 2024 17:14:58 GMT-0500 (Central Daylight Time) 454341.2    A               quee       O         e            159              1      982.9   453358.3       7019   WL         C    3.0
      4      5.365     learn 54634.999990 Tue Sep 24 2024 17:14:58 GMT-0500 (Central Daylight Time) 454474.3    A              queen       O         n            121              1     1116.0   453358.3       7019   WL         C    3.0
      4      5.682     learn 54318.000078 Tue Sep 24 2024 17:14:58 GMT-0500 (Central Daylight Time) 454791.1    A         queenenter       O     enter            307              1     1432.8   453358.3       7019   WL         C    3.0
      4      6.215     learn 53785.000086 Tue Sep 24 2024 17:14:58 GMT-0500 (Central Daylight Time) 455324.5    A                  s       O         s            520              1      533.1   454791.4       7019   WL         C    4.0
      4      6.465     learn 53535.000086 Tue Sep 24 2024 17:14:58 GMT-0500 (Central Daylight Time) 455574.4    A                 su       O         u            233              1      783.0   454791.4       7019   WL         C    4.0
      4      6.648     learn 53351.999998 Tue Sep 24 2024 17:14:58 GMT-0500 (Central Daylight Time) 455757.5    A                sug       O         g            175              1      966.1   454791.4       7019   WL         C    4.0
      4      6.798     learn 53201.999903 Tue Sep 24 2024 17:14:58 GMT-0500 (Central Daylight Time) 455907.3    A               suga       O         a            145              1     1115.9   454791.4       7019   WL         C    4.0
      4      6.916     learn 53084.000111 Tue Sep 24 2024 17:14:58 GMT-0500 (Central Daylight Time) 456025.2    A              sugar       O         r            106              1     1233.8   454791.4       7019   WL         C    4.0
      4      7.198     learn 52802.000046 Tue Sep 24 2024 17:14:58 GMT-0500 (Central Daylight Time) 456307.2    A         sugarenter       O     enter            277              1     1515.8   454791.4       7019   WL         C    4.0
      4      7.614     learn 52385.999918 Tue Sep 24 2024 17:14:58 GMT-0500 (Central Daylight Time) 456723.8    A                  h       O         h            411              1      416.4   456307.4       7019   WL         C    5.0
      4      7.748     learn 52252.000093 Tue Sep 24 2024 17:14:58 GMT-0500 (Central Daylight Time) 456857.2    A                 ho       O         o            114              1      549.8   456307.4       7019   WL         C    5.0
      4      7.881     learn 52118.999958 Tue Sep 24 2024 17:14:58 GMT-0500 (Central Daylight Time) 456990.5    A                hom       O         m            125              1      683.1   456307.4       7019   WL         C    5.0
      4      8.064     learn 51936.000109 Tue Sep 24 2024 17:14:58 GMT-0500 (Central Daylight Time) 457173.7    A               home       O         e            175              1      866.3   456307.4       7019   WL         C    5.0
      4      8.497     learn 51503.000021 Tue Sep 24 2024 17:14:58 GMT-0500 (Central Daylight Time) 457606.8    A          homeenter       O     enter            425              1     1299.4   456307.4       7019   WL         C    5.0
      4      9.264     learn 50736.000061 Tue Sep 24 2024 17:14:58 GMT-0500 (Central Daylight Time) 458373.3    A                  b       O         b            751              1      766.2   457607.1       7019   WL         C    6.0
      4      9.380     learn 50619.999886 Tue Sep 24 2024 17:14:58 GMT-0500 (Central Daylight Time) 458489.8    A                 bo       O         o             95              1      882.7   457607.1       7019   WL         C    6.0
      4      9.597     learn 50402.999878 Tue Sep 24 2024 17:14:58 GMT-0500 (Central Daylight Time) 458706.7    A                boy       O         y            204              1     1099.6   457607.1       7019   WL         C    6.0
      4      9.980     learn 50019.999981 Tue Sep 24 2024 17:14:58 GMT-0500 (Central Daylight Time) 459089.6    A           boyenter       O     enter            363              1     1482.5   457607.1       7019   WL         C    6.0
      4     10.413     learn 49586.999893 Tue Sep 24 2024 17:14:58 GMT-0500 (Central Daylight Time) 459523.0    A                  d       O         d            421              1      433.0   459090.0       7019   WL         C    7.0
      4     10.530     learn 49470.000029 Tue Sep 24 2024 17:14:58 GMT-0500 (Central Daylight Time) 459639.6    A                 do       O         o            107              1      549.6   459090.0       7019   WL         C    7.0
      4     10.730     learn 49269.999981 Tue Sep 24 2024 17:14:58 GMT-0500 (Central Daylight Time) 459839.5    A                doc       O         c            183              1      749.5   459090.0       7019   WL         C    7.0
      4     11.013     learn 48986.999989 Tue Sep 24 2024 17:14:58 GMT-0500 (Central Daylight Time) 460122.8    A               doct       O         t            262              1     1032.8   459090.0       7019   WL         C    7.0
      4     11.097     learn 48902.999878 Tue Sep 24 2024 17:14:58 GMT-0500 (Central Daylight Time) 460206.3    A              docto       O         o             76              1     1116.3   459090.0       7019   WL         C    7.0
      4     11.263     learn 48736.999989 Tue Sep 24 2024 17:14:58 GMT-0500 (Central Daylight Time) 460373.0    A             doctor       O         r            153              1     1283.0   459090.0       7019   WL         C    7.0
      4     11.596     learn 48404.000044 Tue Sep 24 2024 17:14:58 GMT-0500 (Central Daylight Time) 460705.8    A        doctorenter       O     enter            321              1     1615.8   459090.0       7019   WL         C    7.0
      4     12.063     learn 47937.000036 Tue Sep 24 2024 17:14:58 GMT-0500 (Central Daylight Time) 461172.6    A                  f       O         f            461              1      466.5   460706.1       7019   WL         C    8.0
      4     12.196     learn 47803.999901 Tue Sep 24 2024 17:14:58 GMT-0500 (Central Daylight Time) 461305.5    A                 fl       O         l            121              1      599.4   460706.1       7019   WL         C    8.0
      4     12.329     learn 47671.000004 Tue Sep 24 2024 17:14:58 GMT-0500 (Central Daylight Time) 461439.0    A                fla       O         a            124              1      732.9   460706.1       7019   WL         C    8.0
      4     12.546     learn 47453.999996 Tue Sep 24 2024 17:14:58 GMT-0500 (Central Daylight Time) 461655.5    A               flag       O         g            207              1      949.4   460706.1       7019   WL         C    8.0
      4     12.829     learn 47171.000004 Tue Sep 24 2024 17:14:58 GMT-0500 (Central Daylight Time) 461938.9    A          flagenter       O     enter            271              1     1232.8   460706.1       7019   WL         C    8.0
      4     13.313     learn 46687.000036 Tue Sep 24 2024 17:14:58 GMT-0500 (Central Daylight Time) 462422.1    A                  c       O         c            475              1      482.8   461939.3       7019   WL         C    9.0
      4     13.446     learn 46553.999901 Tue Sep 24 2024 17:14:58 GMT-0500 (Central Daylight Time) 462555.3    A                 ca       O         a            120              1      616.0   461939.3       7019   WL         C    9.0
      4     13.579     learn 46421.000004 Tue Sep 24 2024 17:14:58 GMT-0500 (Central Daylight Time) 462688.5    A                cam       O         m            122              1      749.2   461939.3       7019   WL         C    9.0
      4     13.746     learn 46253.999949 Tue Sep 24 2024 17:14:58 GMT-0500 (Central Daylight Time) 462855.2    A               camp       O         p            150              1      915.9   461939.3       7019   WL         C    9.0
      4     14.295     learn 45704.999924 Tue Sep 24 2024 17:14:58 GMT-0500 (Central Daylight Time) 463405.0    A          campenter       O     enter            535              1     1465.7   461939.3       7019   WL         C    9.0
      4     14.979     learn 45020.999908 Tue Sep 24 2024 17:14:58 GMT-0500 (Central Daylight Time) 464088.2    A                  l       O         l            674              1      682.9   463405.3       7019   WL         C   10.0
      4     15.195     learn 44805.000067 Tue Sep 24 2024 17:14:58 GMT-0500 (Central Daylight Time) 464304.8    A                 le       O         e            198              1      899.5   463405.3       7019   WL         C   10.0
      4     15.729     learn 44270.999908 Tue Sep 24 2024 17:14:58 GMT-0500 (Central Daylight Time) 464838.9    A                let       O         t            517              1     1433.6   463405.3       7019   WL         C   10.0
      4     15.912     learn 44088.000059 Tue Sep 24 2024 17:14:58 GMT-0500 (Central Daylight Time) 465021.4    A               lett       O         t            167              1     1616.1   463405.3       7019   WL         C   10.0
      4     15.995     learn 44004.999876 Tue Sep 24 2024 17:14:58 GMT-0500 (Central Daylight Time) 465104.4    A              lette       O         e             64              1     1699.1   463405.3       7019   WL         C   10.0
      4     16.112     learn 43888.000011 Tue Sep 24 2024 17:14:58 GMT-0500 (Central Daylight Time) 465221.1    A             letter       O         r            110              1     1815.8   463405.3       7019   WL         C   10.0
      4     16.745     learn 43254.999876 Tue Sep 24 2024 17:14:58 GMT-0500 (Central Daylight Time) 465854.4    A        letterenter       O     enter            616              1     2449.1   463405.3       7019   WL         C   10.0
      4     17.471     learn 42529.000044 Tue Sep 24 2024 17:14:58 GMT-0500 (Central Daylight Time) 466580.3    A                  o       O         o            721              1      725.7   465854.6       7019   WL         C   11.0
      4     17.695     learn 42305.000067 Tue Sep 24 2024 17:14:58 GMT-0500 (Central Daylight Time) 466804.4    A                 or       O         r            210              1      949.8   465854.6       7019   WL         C   11.0
      4     17.844     learn 42155.999899 Tue Sep 24 2024 17:14:58 GMT-0500 (Central Daylight Time) 466953.9    A                orn       O         n            129              1     1099.3   465854.6       7019   WL         C   11.0
      4     18.578     learn 41421.999931 Tue Sep 24 2024 17:14:58 GMT-0500 (Central Daylight Time) 467687.1    A                 or       O backspace            717              1     1832.5   465854.6       7019   WL         C   11.0
      4     18.761     learn 41239.000082 Tue Sep 24 2024 17:14:58 GMT-0500 (Central Daylight Time) 467870.6    A                  o       O backspace            175              1     2016.0   465854.6       7019   WL         C   11.0
      4     18.944     learn 41055.999994 Tue Sep 24 2024 17:14:58 GMT-0500 (Central Daylight Time) 468053.6    A                          O backspace            167              1     2199.0   465854.6       7019   WL         C   11.0
      4     19.327     learn 40673.000097 Tue Sep 24 2024 17:14:58 GMT-0500 (Central Daylight Time) 468436.8    A                  c       O         c            377              1     2582.2   465854.6       7019   WL         C   11.0
      4     19.394     learn 40605.999947 Tue Sep 24 2024 17:14:58 GMT-0500 (Central Daylight Time) 468503.6    A                 co       O         o             57              1     2649.0   465854.6       7019   WL         C   11.0
      4     19.661     learn 40338.999987 Tue Sep 24 2024 17:14:58 GMT-0500 (Central Daylight Time) 468770.2    A                cor       O         r            255              1     2915.6   465854.6       7019   WL         C   11.0
      4     19.761     learn 40239.000082 Tue Sep 24 2024 17:14:58 GMT-0500 (Central Daylight Time) 468870.1    A               corn       O         n             92              1     3015.5   465854.6       7019   WL         C   11.0
      4     20.244     learn 39756.000042 Tue Sep 24 2024 17:14:58 GMT-0500 (Central Daylight Time) 469353.3    A          cornenter       O     enter            465              1     3498.7   465854.6       7019   WL         C   11.0
      4     20.644     learn 39355.999947 Tue Sep 24 2024 17:14:58 GMT-0500 (Central Daylight Time) 469753.1    A                  c       O         c            381              1      399.3   469353.8       7019   WL         C   12.0
      4     20.810     learn 39190.000057 Tue Sep 24 2024 17:14:58 GMT-0500 (Central Daylight Time) 469919.7    A                 ca       O         a            148              1      565.9   469353.8       7019   WL         C   12.0
      4     21.010     learn 38990.000010 Tue Sep 24 2024 17:14:58 GMT-0500 (Central Daylight Time) 470119.8    A                cat       O         t            191              1      766.0   469353.8       7019   WL         C   12.0
      4     21.177     learn 38822.999954 Tue Sep 24 2024 17:14:58 GMT-0500 (Central Daylight Time) 470286.4    A               catt       O         t            159              1      932.6   469353.8       7019   WL         C   12.0
      4     21.278     learn 38721.999884 Tue Sep 24 2024 17:14:58 GMT-0500 (Central Daylight Time) 470387.4    A              cattl       O         l             87              1     1033.6   469353.8       7019   WL         C   12.0
      4     21.427     learn 38572.999954 Tue Sep 24 2024 17:14:58 GMT-0500 (Central Daylight Time) 470536.1    A             cattle       O         e            139              1     1182.3   469353.8       7019   WL         C   12.0
      4     21.793     learn 38207.000017 Tue Sep 24 2024 17:14:58 GMT-0500 (Central Daylight Time) 470902.6    A        cattleenter       O     enter            350              1     1548.8   469353.8       7019   WL         C   12.0
      4     22.310     learn 37690.000057 Tue Sep 24 2024 17:14:58 GMT-0500 (Central Daylight Time) 471419.2    A                  s       O         s            496              1      516.2   470903.0       7019   WL         C   13.0
      4     22.510     learn 37490.000010 Tue Sep 24 2024 17:14:58 GMT-0500 (Central Daylight Time) 471619.0    A                 sh       O         h            187              1      716.0   470903.0       7019   WL         C   13.0
      4     22.626     learn 37374.000072 Tue Sep 24 2024 17:14:58 GMT-0500 (Central Daylight Time) 471735.8    A                sho       O         o            108              1      832.8   470903.0       7019   WL         C   13.0
      4     22.776     learn 37223.999977 Tue Sep 24 2024 17:14:58 GMT-0500 (Central Daylight Time) 471885.7    A               shor       O         r            142              1      982.7   470903.0       7019   WL         C   13.0
      4     22.843     learn 37157.000065 Tue Sep 24 2024 17:14:58 GMT-0500 (Central Daylight Time) 471952.3    A              shore       O         e             49              1     1049.3   470903.0       7019   WL         C   13.0
      4     23.159     learn 36841.000080 Tue Sep 24 2024 17:14:58 GMT-0500 (Central Daylight Time) 472268.9    A         shoreenter       O     enter            302              1     1365.9   470903.0       7019   WL         C   13.0
      4     23.509     learn 36490.999937 Tue Sep 24 2024 17:14:58 GMT-0500 (Central Daylight Time) 472618.6    A                  n       O         n            345              1      349.3   472269.3       7019   WL         C   14.0
      4     23.693     learn 36306.999922 Tue Sep 24 2024 17:14:58 GMT-0500 (Central Daylight Time) 472802.0    A                 na       O         a            163              1      532.7   472269.3       7019   WL         C   14.0
      4     23.776     learn 36223.999977 Tue Sep 24 2024 17:14:58 GMT-0500 (Central Daylight Time) 472885.5    A                nai       O         i             69              1      616.2   472269.3       7019   WL         C   14.0
      4     23.976     learn 36023.999929 Tue Sep 24 2024 17:14:58 GMT-0500 (Central Daylight Time) 473085.4    A               nail       O         l            192              1      816.1   472269.3       7019   WL         C   14.0
      4     24.409     learn 35591.000080 Tue Sep 24 2024 17:14:58 GMT-0500 (Central Daylight Time) 473518.5    A          nailenter       O     enter            425              1     1249.2   472269.3       7019   WL         C   14.0
      4     32.256     learn 27743.999958 Tue Sep 24 2024 17:14:58 GMT-0500 (Central Daylight Time) 481365.9    A              enter       O     enter           7832              1     7847.0   473518.9       7019   WL         C   15.0
      5      1.500     learn 60000.000000 Tue Sep 24 2024 17:14:58 GMT-0500 (Central Daylight Time) 548478.7    A                  t       O         t           1483              1     1499.8   546978.9       7019   WL         C    1.0
      5      1.617     learn 60000.000000 Tue Sep 24 2024 17:14:58 GMT-0500 (Central Daylight Time) 548595.0    A                 to       O         o            112              1     1616.1   546978.9       7019   WL         C    1.0
      5      1.816     learn 60000.000000 Tue Sep 24 2024 17:14:58 GMT-0500 (Central Daylight Time) 548794.7    A                tow       O         w            180              1     1815.8   546978.9       7019   WL         C    1.0
      5      1.900     learn 60000.000000 Tue Sep 24 2024 17:14:58 GMT-0500 (Central Daylight Time) 548878.3    A               towe       O         e             68              1     1899.4   546978.9       7019   WL         C    1.0
      5      2.017     learn 60000.000000 Tue Sep 24 2024 17:14:58 GMT-0500 (Central Daylight Time) 548994.9    A              tower       O         r            104              1     2016.0   546978.9       7019   WL         C    1.0
      5      2.351     learn 60000.000000 Tue Sep 24 2024 17:14:58 GMT-0500 (Central Daylight Time) 549329.3    A         towerenter       O     enter            324              1     2350.4   546978.9       7019   WL         C    1.0
      5      2.950     learn 60000.000000 Tue Sep 24 2024 17:14:58 GMT-0500 (Central Daylight Time) 549928.1    A                  w       O         w            580              1      598.5   549329.6       7019   WL         C    2.0
      5      3.416     learn 60000.000000 Tue Sep 24 2024 17:14:58 GMT-0500 (Central Daylight Time) 550394.6    A                 wh       O         h            446              1     1065.0   549329.6       7019   WL         C    2.0
      5      3.533     learn 60000.000000 Tue Sep 24 2024 17:14:58 GMT-0500 (Central Daylight Time) 550510.9    A                whe       O         e            100              1     1181.3   549329.6       7019   WL         C    2.0
      5      3.733     learn 60000.000000 Tue Sep 24 2024 17:14:58 GMT-0500 (Central Daylight Time) 550710.9    A               whea       O         a            183              1     1381.3   549329.6       7019   WL         C    2.0
      5      3.883     learn 60000.000000 Tue Sep 24 2024 17:14:58 GMT-0500 (Central Daylight Time) 550860.9    A              wheat       O         t            143              1     1531.3   549329.6       7019   WL         C    2.0
      5      4.066     learn 60000.000000 Tue Sep 24 2024 17:14:58 GMT-0500 (Central Daylight Time) 551044.2    A         wheatenter       O     enter            178              1     1714.6   549329.6       7019   WL         C    2.0
      5      4.666     learn 60000.000000 Tue Sep 24 2024 17:14:58 GMT-0500 (Central Daylight Time) 551644.0    A                  q       O         q            586              1      599.6   551044.4       7019   WL         C    3.0
      5      4.882     learn 60000.000000 Tue Sep 24 2024 17:14:58 GMT-0500 (Central Daylight Time) 551860.5    A                 qu       O         u            201              1      816.1   551044.4       7019   WL         C    3.0
      5      4.949     learn 60000.000000 Tue Sep 24 2024 17:14:58 GMT-0500 (Central Daylight Time) 551927.5    A                que       O         e             49              1      883.1   551044.4       7019   WL         C    3.0
      5      5.132     learn 60000.000000 Tue Sep 24 2024 17:14:58 GMT-0500 (Central Daylight Time) 552110.6    A               quee       O         e            167              1     1066.2   551044.4       7019   WL         C    3.0
      5      5.249     learn 60000.000000 Tue Sep 24 2024 17:14:58 GMT-0500 (Central Daylight Time) 552227.3    A              queen       O         n             96              1     1182.9   551044.4       7019   WL         C    3.0
      5      5.582     learn 60000.000000 Tue Sep 24 2024 17:14:58 GMT-0500 (Central Daylight Time) 552560.5    A         queenenter       O     enter            315              1     1516.1   551044.4       7019   WL         C    3.0
      5      5.899     learn 60000.000000 Tue Sep 24 2024 17:14:58 GMT-0500 (Central Daylight Time) 552876.9    A                  s       O         s            309              1      316.1   552560.8       7019   WL         C    4.0
      5      6.099     learn 60000.000000 Tue Sep 24 2024 17:14:58 GMT-0500 (Central Daylight Time) 553076.9    A                 su       O         u            193              1      516.1   552560.8       7019   WL         C    4.0
      5      6.282     learn 60000.000000 Tue Sep 24 2024 17:14:58 GMT-0500 (Central Daylight Time) 553260.3    A                sug       O         g            169              1      699.5   552560.8       7019   WL         C    4.0
      5      6.399     learn 60000.000000 Tue Sep 24 2024 17:14:58 GMT-0500 (Central Daylight Time) 553377.1    A               suga       O         a            106              1      816.3   552560.8       7019   WL         C    4.0
      5      6.499     learn 60000.000000 Tue Sep 24 2024 17:14:58 GMT-0500 (Central Daylight Time) 553477.0    A              sugar       O         r             85              1      916.2   552560.8       7019   WL         C    4.0
      5      6.782     learn 60000.000000 Tue Sep 24 2024 17:14:58 GMT-0500 (Central Daylight Time) 553760.1    A         sugarenter       O     enter            274              1     1199.3   552560.8       7019   WL         C    4.0
      5      7.183     learn 60000.000000 Tue Sep 24 2024 17:14:58 GMT-0500 (Central Daylight Time) 554161.0    A                  h       O         h            382              1      400.6   553760.4       7019   WL         C    5.0
      5      7.315     learn 60000.000000 Tue Sep 24 2024 17:14:58 GMT-0500 (Central Daylight Time) 554293.2    A                 ho       O         o            124              1      532.8   553760.4       7019   WL         C    5.0
      5      7.466     learn 60000.000000 Tue Sep 24 2024 17:14:58 GMT-0500 (Central Daylight Time) 554444.1    A                hom       O         m            144              1      683.7   553760.4       7019   WL         C    5.0
      5      7.665     learn 60000.000000 Tue Sep 24 2024 17:14:58 GMT-0500 (Central Daylight Time) 554643.1    A               home       O         e            179              1      882.7   553760.4       7019   WL         C    5.0
      5      8.032     learn 60000.000000 Tue Sep 24 2024 17:14:58 GMT-0500 (Central Daylight Time) 555010.4    A          homeenter       O     enter            363              1     1250.0   553760.4       7019   WL         C    5.0
      5      9.064     learn 60000.000000 Tue Sep 24 2024 17:14:58 GMT-0500 (Central Daylight Time) 556042.7    A                  b       O         b           1020              1     1032.1   555010.6       7019   WL         C    6.0
      5      9.148     learn 60000.000000 Tue Sep 24 2024 17:14:58 GMT-0500 (Central Daylight Time) 556126.0    A                 bo       O         o             75              1     1115.4   555010.6       7019   WL         C    6.0
      5      9.364     learn 60000.000000 Tue Sep 24 2024 17:14:58 GMT-0500 (Central Daylight Time) 556342.6    A                boy       O         y            200              1     1332.0   555010.6       7019   WL         C    6.0
      5      9.731     learn 60000.000000 Tue Sep 24 2024 17:14:58 GMT-0500 (Central Daylight Time) 556709.2    A           boyenter       O     enter            351              1     1698.6   555010.6       7019   WL         C    6.0
      5     10.014     learn 60000.000000 Tue Sep 24 2024 17:14:58 GMT-0500 (Central Daylight Time) 556992.3    A                  d       O         d            274              1      282.7   556709.6       7019   WL         C    7.0
      5     10.131     learn 60000.000000 Tue Sep 24 2024 17:14:58 GMT-0500 (Central Daylight Time) 557109.0    A                 do       O         o            110              1      399.4   556709.6       7019   WL         C    7.0
      5     10.331     learn 60000.000000 Tue Sep 24 2024 17:14:58 GMT-0500 (Central Daylight Time) 557308.9    A                doc       O         c            194              1      599.3   556709.6       7019   WL         C    7.0
      5     10.547     learn 60000.000000 Tue Sep 24 2024 17:14:58 GMT-0500 (Central Daylight Time) 557525.7    A               doct       O         t            209              1      816.1   556709.6       7019   WL         C    7.0
      5     10.614     learn 60000.000000 Tue Sep 24 2024 17:14:58 GMT-0500 (Central Daylight Time) 557592.1    A              docto       O         o             56              1      882.5   556709.6       7019   WL         C    7.0
      5     10.781     learn 60000.000000 Tue Sep 24 2024 17:14:58 GMT-0500 (Central Daylight Time) 557758.9    A             doctor       O         r            157              1     1049.3   556709.6       7019   WL         C    7.0
      5     11.080     learn 60000.000000 Tue Sep 24 2024 17:14:58 GMT-0500 (Central Daylight Time) 558058.6    A        doctorenter       O     enter            295              1     1349.0   556709.6       7019   WL         C    7.0
      5     11.480     learn 60000.000000 Tue Sep 24 2024 17:14:58 GMT-0500 (Central Daylight Time) 558458.7    A                  f       O         f            388              1      399.8   558058.9       7019   WL         C    8.0
      5     11.630     learn 60000.000000 Tue Sep 24 2024 17:14:58 GMT-0500 (Central Daylight Time) 558608.8    A                 fl       O         l            132              1      549.9   558058.9       7019   WL         C    8.0
      5     11.847     learn 60000.000000 Tue Sep 24 2024 17:14:58 GMT-0500 (Central Daylight Time) 558825.0    A                fla       O         a            198              1      766.1   558058.9       7019   WL         C    8.0
      5     12.147     learn 60000.000000 Tue Sep 24 2024 17:14:58 GMT-0500 (Central Daylight Time) 559124.9    A               flag       O         g            286              1     1066.0   558058.9       7019   WL         C    8.0
      5     12.547     learn 60000.000000 Tue Sep 24 2024 17:14:58 GMT-0500 (Central Daylight Time) 559524.9    A          flagenter       O     enter            393              1     1466.0   558058.9       7019   WL         C    8.0
      5     12.947     learn 60000.000000 Tue Sep 24 2024 17:14:58 GMT-0500 (Central Daylight Time) 559924.9    A                  c       O         c            385              1      399.7   559525.2       7019   WL         C    9.0
      5     13.080     learn 60000.000000 Tue Sep 24 2024 17:14:58 GMT-0500 (Central Daylight Time) 560058.2    A                 ca       O         a            122              1      533.0   559525.2       7019   WL         C    9.0
      5     13.196     learn 60000.000000 Tue Sep 24 2024 17:14:58 GMT-0500 (Central Daylight Time) 560174.6    A                cam       O         m             99              1      649.4   559525.2       7019   WL         C    9.0
      5     13.330     learn 60000.000000 Tue Sep 24 2024 17:14:58 GMT-0500 (Central Daylight Time) 560308.1    A               camp       O         p            127              1      782.9   559525.2       7019   WL         C    9.0
      5     13.847     learn 60000.000000 Tue Sep 24 2024 17:14:58 GMT-0500 (Central Daylight Time) 560824.9    A          campenter       O     enter            506              1     1299.7   559525.2       7019   WL         C    9.0
      5     14.213     learn 60000.000000 Tue Sep 24 2024 17:14:58 GMT-0500 (Central Daylight Time) 561191.2    A                  n       O         n            348              1      366.0   560825.2       7019   WL         C   10.0
      5     14.363     learn 60000.000000 Tue Sep 24 2024 17:14:58 GMT-0500 (Central Daylight Time) 561340.9    A                 na       O         a            135              1      515.7   560825.2       7019   WL         C   10.0
      5     14.463     learn 60000.000000 Tue Sep 24 2024 17:14:58 GMT-0500 (Central Daylight Time) 561441.0    A                nai       O         i             89              1      615.8   560825.2       7019   WL         C   10.0
      5     14.713     learn 60000.000000 Tue Sep 24 2024 17:14:58 GMT-0500 (Central Daylight Time) 561691.0    A               nail       O         l            230              1      865.8   560825.2       7019   WL         C   10.0
      5     15.112     learn 60000.000000 Tue Sep 24 2024 17:14:58 GMT-0500 (Central Daylight Time) 562090.8    A          nailenter       O     enter            386              1     1265.6   560825.2       7019   WL         C   10.0
      5     15.879     learn 60000.000000 Tue Sep 24 2024 17:14:58 GMT-0500 (Central Daylight Time) 562857.1    A                  l       O         l            748              1      766.0   562091.1       7019   WL         C   11.0
      5     16.029     learn 60000.000000 Tue Sep 24 2024 17:14:58 GMT-0500 (Central Daylight Time) 563007.1    A                 le       O         e            134              1      916.0   562091.1       7019   WL         C   11.0
      5     16.279     learn 60000.000000 Tue Sep 24 2024 17:14:58 GMT-0500 (Central Daylight Time) 563257.1    A                let       O         t            239              1     1166.0   562091.1       7019   WL         C   11.0
      5     16.446     learn 60000.000000 Tue Sep 24 2024 17:14:58 GMT-0500 (Central Daylight Time) 563424.7    A               lett       O         t            156              1     1333.6   562091.1       7019   WL         C   11.0
      5     16.945     learn 60000.000000 Tue Sep 24 2024 17:14:58 GMT-0500 (Central Daylight Time) 563923.5    A              lette       O         e            485              1     1832.4   562091.1       7019   WL         C   11.0
      5     17.028     learn 60000.000000 Tue Sep 24 2024 17:14:58 GMT-0500 (Central Daylight Time) 564006.7    A             letter       O         r             66              1     1915.6   562091.1       7019   WL         C   11.0
      5     17.312     learn 60000.000000 Tue Sep 24 2024 17:14:58 GMT-0500 (Central Daylight Time) 564289.9    A        letterenter       O     enter            263              1     2198.8   562091.1       7019   WL         C   11.0
      5     17.828     learn 60000.000000 Tue Sep 24 2024 17:14:58 GMT-0500 (Central Daylight Time) 564806.5    A                  c       O         c            508              1      516.3   564290.2       7019   WL         C   12.0
      5     17.911     learn 60000.000000 Tue Sep 24 2024 17:14:58 GMT-0500 (Central Daylight Time) 564889.6    A                 co       O         o             63              1      599.4   564290.2       7019   WL         C   12.0
      5     18.195     learn 60000.000000 Tue Sep 24 2024 17:14:58 GMT-0500 (Central Daylight Time) 565173.1    A                cor       O         r            276              1      882.9   564290.2       7019   WL         C   12.0
      5     18.361     learn 60000.000000 Tue Sep 24 2024 17:14:58 GMT-0500 (Central Daylight Time) 565339.6    A               corn       O         n            147              1     1049.4   564290.2       7019   WL         C   12.0
      5     19.278     learn 60000.000000 Tue Sep 24 2024 17:14:58 GMT-0500 (Central Daylight Time) 566256.1    A          cornenter       O     enter            906              1     1965.9   564290.2       7019   WL         C   12.0
      5     21.494     learn 60000.000000 Tue Sep 24 2024 17:14:58 GMT-0500 (Central Daylight Time) 568472.2    A                  s       O         s           2199              1     2215.8   566256.4       7019   WL         C   13.0
      5     21.610     learn 60000.000000 Tue Sep 24 2024 17:14:58 GMT-0500 (Central Daylight Time) 568588.8    A                 sh       O         h            110              1     2332.4   566256.4       7019   WL         C   13.0
      5     21.760     learn 60000.000000 Tue Sep 24 2024 17:14:58 GMT-0500 (Central Daylight Time) 568738.5    A                sho       O         o            137              1     2482.1   566256.4       7019   WL         C   13.0
      5     21.860     learn 60000.000000 Tue Sep 24 2024 17:14:58 GMT-0500 (Central Daylight Time) 568838.7    A               shor       O         r             92              1     2582.3   566256.4       7019   WL         C   13.0
      5     21.960     learn 60000.000000 Tue Sep 24 2024 17:14:58 GMT-0500 (Central Daylight Time) 568938.7    A              shore       O         e             79              1     2682.3   566256.4       7019   WL         C   13.0
      5     22.510     learn 60000.000000 Tue Sep 24 2024 17:14:58 GMT-0500 (Central Daylight Time) 569488.5    A         shoreenter       O     enter            532              1     3232.1   566256.4       7019   WL         C   13.0
      5     23.110     learn 60000.000000 Tue Sep 24 2024 17:14:58 GMT-0500 (Central Daylight Time) 570088.2    A                  b       O         b            589              1      599.3   569488.9       7019   WL         C   14.0
      5     23.210     learn 60000.000000 Tue Sep 24 2024 17:14:58 GMT-0500 (Central Daylight Time) 570188.3    A                 bo       O         o             86              1      699.4   569488.9       7019   WL         C   14.0
      5     23.376     learn 60000.000000 Tue Sep 24 2024 17:14:58 GMT-0500 (Central Daylight Time) 570354.6    A                bod       O         d            145              1      865.7   569488.9       7019   WL         C   14.0
      5     23.509     learn 60000.000000 Tue Sep 24 2024 17:14:58 GMT-0500 (Central Daylight Time) 570487.7    A               body       O         y            114              1      998.8   569488.9       7019   WL         C   14.0
      5     23.893     learn 60000.000000 Tue Sep 24 2024 17:14:58 GMT-0500 (Central Daylight Time) 570871.3    A          bodyenter       O     enter            373              1     1382.4   569488.9       7019   WL         C   14.0
      5     27.059     learn 60000.000000 Tue Sep 24 2024 17:14:58 GMT-0500 (Central Daylight Time) 574037.0    A                  f       O         f           3150              1     3165.4   570871.6       7019   WL         C   15.0
      5     28.558     learn 60000.000000 Tue Sep 24 2024 17:14:58 GMT-0500 (Central Daylight Time) 575536.6    A                          O backspace           1489              1     4665.0   570871.6       7019   WL         C   15.0
      5     30.108     learn 60000.000000 Tue Sep 24 2024 17:14:58 GMT-0500 (Central Daylight Time) 577086.2    A              enter       O     enter           1542              1     6214.6   570871.6       7019   WL         C   15.0
      6      1.249     distr 58750.999928 Tue Sep 24 2024 17:14:58 GMT-0500 (Central Daylight Time) 661342.8    B                  s       O         s           1234              1     1249.4   660093.4       7019   WL         C    1.0
      6      1.366     distr 58634.000063 Tue Sep 24 2024 17:14:58 GMT-0500 (Central Daylight Time) 661459.3    B                 sk       O         k            111              1     1365.9   660093.4       7019   WL         C    1.0
      6      1.716     distr 58283.999920 Tue Sep 24 2024 17:14:58 GMT-0500 (Central Daylight Time) 661809.4    B                sky       O         y            339              1     1716.0   660093.4       7019   WL         C    1.0
      6      2.117     distr 57882.999897 Tue Sep 24 2024 17:14:58 GMT-0500 (Central Daylight Time) 662210.5    B           skyenter       O     enter            381              1     2117.1   660093.4       7019   WL         C    1.0
      6      2.649     distr 57351.000071 Tue Sep 24 2024 17:14:58 GMT-0500 (Central Daylight Time) 662742.5    B                  d       O         d            524              1      531.7   662210.8       7019   WL         C    2.0
      6      2.849     distr 57151.000023 Tue Sep 24 2024 17:14:58 GMT-0500 (Central Daylight Time) 662942.5    B                 do       O         o            183              1      731.7   662210.8       7019   WL         C    2.0
      6      3.132     distr 56868.000031 Tue Sep 24 2024 17:14:58 GMT-0500 (Central Daylight Time) 663225.6    B                dol       O         l            263              1     1014.8   662210.8       7019   WL         C    2.0
      6      3.299     distr 56700.999975 Tue Sep 24 2024 17:14:58 GMT-0500 (Central Daylight Time) 663392.3    B               doll       O         l            156              1     1181.5   662210.8       7019   WL         C    2.0
      6      3.399     distr 56601.000071 Tue Sep 24 2024 17:14:58 GMT-0500 (Central Daylight Time) 663492.2    B              dolla       O         a             94              1     1281.4   662210.8       7019   WL         C    2.0
      6      3.599     distr 56401.000023 Tue Sep 24 2024 17:14:58 GMT-0500 (Central Daylight Time) 663692.1    B             dollar       O         r            185              1     1481.3   662210.8       7019   WL         C    2.0
      6      3.866     distr 56134.000063 Tue Sep 24 2024 17:14:58 GMT-0500 (Central Daylight Time) 663959.9    B        dollarenter       O     enter            257              1     1749.1   662210.8       7019   WL         C    2.0
      6      4.383     distr 55617.000103 Tue Sep 24 2024 17:14:58 GMT-0500 (Central Daylight Time) 664476.3    B                  v       O         v            510              1      516.2   663960.1       7019   WL         C    3.0
      6      4.498     distr 55502.000093 Tue Sep 24 2024 17:14:58 GMT-0500 (Central Daylight Time) 664591.6    B                 va       O         a             98              1      631.5   663960.1       7019   WL         C    3.0
      6      4.615     distr 55384.999990 Tue Sep 24 2024 17:14:58 GMT-0500 (Central Daylight Time) 664708.5    B                val       O         l            102              1      748.4   663960.1       7019   WL         C    3.0
      6      4.815     distr 55184.999943 Tue Sep 24 2024 17:14:58 GMT-0500 (Central Daylight Time) 664908.5    B               vall       O         l            186              1      948.4   663960.1       7019   WL         C    3.0
      6      4.965     distr 55035.000086 Tue Sep 24 2024 17:14:58 GMT-0500 (Central Daylight Time) 665058.4    B              valle       O         e            138              1     1098.3   663960.1       7019   WL         C    3.0
      6      5.466     distr 54533.999920 Tue Sep 24 2024 17:14:58 GMT-0500 (Central Daylight Time) 665559.3    B             valley       O         y            484              1     1599.2   663960.1       7019   WL         C    3.0
      6      5.999     distr 54000.999928 Tue Sep 24 2024 17:14:58 GMT-0500 (Central Daylight Time) 666092.4    B        valleyenter       O     enter            526              1     2132.3   663960.1       7019   WL         C    3.0
      6      6.748     distr 53252.000093 Tue Sep 24 2024 17:14:58 GMT-0500 (Central Daylight Time) 666841.2    B                  h       O         h            738              1      748.6   666092.6       7019   WL         C    4.0
      6      6.898     distr 53101.999998 Tue Sep 24 2024 17:14:58 GMT-0500 (Central Daylight Time) 666991.2    B                 ha       O         a            133              1      898.6   666092.6       7019   WL         C    4.0
      6      7.064     distr 52936.000109 Tue Sep 24 2024 17:14:58 GMT-0500 (Central Daylight Time) 667157.7    B                hal       O         l            158              1     1065.1   666092.6       7019   WL         C    4.0
      6      7.264     distr 52736.000061 Tue Sep 24 2024 17:14:58 GMT-0500 (Central Daylight Time) 667357.7    B               hall       O         l            185              1     1265.1   666092.6       7019   WL         C    4.0
      6      7.847     distr 52153.000116 Tue Sep 24 2024 17:14:58 GMT-0500 (Central Daylight Time) 667940.9    B          hallenter       O     enter            577              1     1848.3   666092.6       7019   WL         C    4.0
      6      9.081     distr 50918.999910 Tue Sep 24 2024 17:14:58 GMT-0500 (Central Daylight Time) 669174.6    B                  m       O         m           1217              1     1233.4   667941.2       7019   WL         C    5.0
      6      9.330     distr 50670.000076 Tue Sep 24 2024 17:14:58 GMT-0500 (Central Daylight Time) 669423.8    B                 mo       O         o            240              1     1482.6   667941.2       7019   WL         C    5.0
      6      9.447     distr 50552.999973 Tue Sep 24 2024 17:14:58 GMT-0500 (Central Daylight Time) 669540.4    B                mon       O         n            102              1     1599.2   667941.2       7019   WL         C    5.0
      6      9.597     distr 50403.000116 Tue Sep 24 2024 17:14:58 GMT-0500 (Central Daylight Time) 669690.3    B               mone       O         e            138              1     1749.1   667941.2       7019   WL         C    5.0
      6      9.913     distr 50086.999893 Tue Sep 24 2024 17:14:58 GMT-0500 (Central Daylight Time) 670006.9    B              money       O         y            300              1     2065.7   667941.2       7019   WL         C    5.0
      6     10.347     distr 49653.000116 Tue Sep 24 2024 17:14:58 GMT-0500 (Central Daylight Time) 670440.1    B         moneyenter       O     enter            424              1     2498.9   667941.2       7019   WL         C    5.0
      6     10.880     distr 49120.000124 Tue Sep 24 2024 17:14:58 GMT-0500 (Central Daylight Time) 670973.3    B                  m       O         m            526              1      532.9   670440.4       7019   WL         C    6.0
      6     11.046     distr 48953.999996 Tue Sep 24 2024 17:14:58 GMT-0500 (Central Daylight Time) 671139.6    B                 mo       O         o            161              1      699.2   670440.4       7019   WL         C    6.0
      6     11.279     distr 48720.999956 Tue Sep 24 2024 17:14:58 GMT-0500 (Central Daylight Time) 671373.0    B                mot       O         t            218              1      932.6   670440.4       7019   WL         C    6.0
      6     11.413     distr 48586.999893 Tue Sep 24 2024 17:14:58 GMT-0500 (Central Daylight Time) 671506.5    B               moth       O         h            113              1     1066.1   670440.4       7019   WL         C    6.0
