acc_sum,block,block_c,change,condition,correct,correct_response,datetime,endtime,face,project,response,response_time,row_sel,session_number,start_end,starttime,subject_id,task,task_vers,trial
0,prac,1,,1-Back,,,Fri Sep 06 2024 10:02:52 GMT-0500 (Central Daylight Time),,005_o_f_d_a.png,O,space,14483,1,1,,,7018,VNB,B,0
1,prac,1,0.0,1-Back,1,m,Fri Sep 06 2024 10:02:52 GMT-0500 (Central Daylight Time),166027.79999995232,020_y_f_n_a.png,O,m,675,2,1,1539.1000000238419,164488.69999992847,7018,VNB,B,1
2,prac,1,0.0,1-Back,1,m,Fri Sep 06 2024 10:02:52 GMT-0500 (Central Daylight Time),167960.39999997616,007_m_m_h_a.png,O,m,1038,3,1,1925.8000000715256,166034.59999990463,7018,VNB,B,2
3,prac,1,0.0,1-Back,1,m,Fri Sep 06 2024 10:02:52 GMT-0500 (Central Daylight Time),169543.39999997616,016_y_m_d_a.png,O,m,687,4,1,1576.8000000715256,167966.59999990463,7018,VNB,B,3
3,prac,1,0.0,1-Back,0,m,Fri Sep 06 2024 10:02:52 GMT-0500 (Central Daylight Time),171226.0,005_o_f_n_a.png,O,z,801,5,1,1677.2000000476837,169548.79999995232,7018,VNB,B,4
4,prac,1,1.0,1-Back,1,z,Fri Sep 06 2024 10:02:52 GMT-0500 (Central Daylight Time),173508.59999990463,016_y_m_n_a.png,O,z,1388,6,1,2274.6999999284744,171233.89999997616,7018,VNB,B,5
5,prac,1,0.0,1-Back,1,m,Fri Sep 06 2024 10:02:52 GMT-0500 (Central Daylight Time),175258.19999992847,004_o_m_h_a.png,O,m,879,7,1,1743.7999999523163,173514.39999997616,7018,VNB,B,6
6,prac,1,0.0,1-Back,1,m,Fri Sep 06 2024 10:02:52 GMT-0500 (Central Daylight Time),176990.89999997616,011_m_f_d_a.png,O,m,839,8,1,1726.7000000476837,175264.19999992847,7018,VNB,B,7
6,prac,1,1.0,1-Back,0,z,Fri Sep 06 2024 10:02:52 GMT-0500 (Central Daylight Time),178873.5,020_y_f_d_a.png,O,m,1014,9,1,1876.9000000953674,176996.59999990463,7018,VNB,B,8
6,prac,1,0.0,1-Back,0,m,Fri Sep 06 2024 10:02:52 GMT-0500 (Central Daylight Time),181306.19999992847,007_m_m_n_a.png,O,z,1546,10,1,2427.5,178878.69999992847,7018,VNB,B,9
7,prac,1,0.0,1-Back,1,m,Fri Sep 06 2024 10:02:52 GMT-0500 (Central Daylight Time),183572.29999995232,005_o_f_h_a.png,O,m,1373,11,1,2260.5,181311.79999995232,7018,VNB,B,10
8,prac,1,0.0,1-Back,1,m,Fri Sep 06 2024 10:02:52 GMT-0500 (Central Daylight Time),185206.29999995232,016_y_m_d_a.png,O,m,728,12,1,1627.5,183578.79999995232,7018,VNB,B,11
0,test,1,0.0,1-Back,,,Fri Sep 06 2024 10:02:52 GMT-0500 (Central Daylight Time),185206.29999995232,020_y_f_d_a.png,O,space,13071,1,1,1627.5,183578.79999995232,7018,VNB,B,0
1,test,1,0.0,1-Back,1,m,Fri Sep 06 2024 10:02:52 GMT-0500 (Central Daylight Time),209830.59999990463,011_m_f_n_a.png,O,m,1020,2,1,2044.5,207786.09999990463,7018,VNB,B,1
2,test,1,0.0,1-Back,1,m,Fri Sep 06 2024 10:02:52 GMT-0500 (Central Daylight Time),212046.69999992847,004_o_m_h_a.png,O,m,1139,3,1,2212.100000023842,209834.59999990463,7018,VNB,B,2
3,test,1,1.0,1-Back,1,z,Fri Sep 06 2024 10:02:52 GMT-0500 (Central Daylight Time),213962.39999997616,007_m_m_h_a.png,O,z,891,4,1,1911.5,212050.89999997616,7018,VNB,B,3
4,test,1,0.0,1-Back,1,m,Fri Sep 06 2024 10:02:52 GMT-0500 (Central Daylight Time),215745.5,005_o_f_n_a.png,O,m,751,5,1,1778.9000000953674,213966.59999990463,7018,VNB,B,4
5,test,1,0.0,1-Back,1,m,Fri Sep 06 2024 10:02:52 GMT-0500 (Central Daylight Time),217478.19999992847,016_y_m_d_a.png,O,m,712,6,1,1728.7999999523163,215749.39999997616,7018,VNB,B,5
6,test,1,1.0,1-Back,1,z,Fri Sep 06 2024 10:02:52 GMT-0500 (Central Daylight Time),219477.39999997616,011_m_f_d_a.png,O,z,971,7,1,1995.3000000715256,217482.09999990463,7018,VNB,B,6
7,test,1,0.0,1-Back,1,m,Fri Sep 06 2024 10:02:52 GMT-0500 (Central Daylight Time),221410.39999997616,020_y_f_h_a.png,O,m,867,8,1,1928.7000000476837,219481.69999992847,7018,VNB,B,7
8,test,1,0.0,1-Back,1,m,Fri Sep 06 2024 10:02:52 GMT-0500 (Central Daylight Time),223059.79999995232,004_o_m_n_a.png,O,m,598,9,1,1645.3999999761581,221414.39999997616,7018,VNB,B,8
9,test,1,0.0,1-Back,1,m,Fri Sep 06 2024 10:02:52 GMT-0500 (Central Daylight Time),224842.19999992847,016_y_m_h_a.png,O,m,732,10,1,1778.1999999284744,223064.0,7018,VNB,B,9
10,test,1,0.0,1-Back,1,m,Fri Sep 06 2024 10:02:52 GMT-0500 (Central Daylight Time),226542.0,004_o_m_d_a.png,O,m,646,11,1,1695.8000000715256,224846.19999992847,7018,VNB,B,10
11,test,1,1.0,1-Back,1,z,Fri Sep 06 2024 10:02:52 GMT-0500 (Central Daylight Time),228608.0,005_o_f_d_a.png,O,z,1010,12,1,2062.3000000715256,226545.69999992847,7018,VNB,B,11
11,test,1,0.0,1-Back,0,m,Fri Sep 06 2024 10:02:52 GMT-0500 (Central Daylight Time),230540.79999995232,007_m_m_n_a.png,O,z,880,13,1,1928.7999999523163,228612.0,7018,VNB,B,12
12,test,1,1.0,1-Back,1,z,Fri Sep 06 2024 10:02:52 GMT-0500 (Central Daylight Time),232723.09999990463,020_y_f_n_a.png,O,z,1131,14,1,2178.399999976158,230544.69999992847,7018,VNB,B,13
13,test,1,0.0,1-Back,1,m,Fri Sep 06 2024 10:02:52 GMT-0500 (Central Daylight Time),234639.19999992847,011_m_f_h_a.png,O,m,853,15,1,1912.2999999523163,232726.89999997616,7018,VNB,B,14
13,test,1,0.0,1-Back,0,m,Fri Sep 06 2024 10:02:52 GMT-0500 (Central Daylight Time),236771.89999997616,007_m_m_d_a.png,O,z,1064,16,1,2128.600000023842,234643.29999995232,7018,VNB,B,15
14,test,1,0.0,1-Back,1,m,Fri Sep 06 2024 10:02:52 GMT-0500 (Central Daylight Time),238904.79999995232,016_y_m_n_a.png,O,m,1068,17,1,2129.2000000476837,236775.59999990463,7018,VNB,B,16
15,test,1,0.0,1-Back,1,m,Fri Sep 06 2024 10:02:52 GMT-0500 (Central Daylight Time),240670.79999995232,005_o_f_h_a.png,O,m,711,18,1,1761.7999999523163,238909.0,7018,VNB,B,17
0,test,2,0.0,1-Back,,,Fri Sep 06 2024 10:02:52 GMT-0500 (Central Daylight Time),240670.79999995232,016_y_m_n_a.png,O,space,1786,1,1,1761.7999999523163,238909.0,7018,VNB,B,0
1,test,2,0.0,1-Back,1,m,Fri Sep 06 2024 10:02:52 GMT-0500 (Central Daylight Time),246319.29999995232,020_y_f_h_a.png,O,m,803,2,1,1829.1000000238419,244490.19999992847,7018,VNB,B,1
2,test,2,1.0,1-Back,1,m,Fri Sep 06 2024 10:02:52 GMT-0500 (Central Daylight Time),248301.79999995232,004_o_m_n_a.png,O,m,962,3,1,1979.1000000238419,246322.69999992847,7018,VNB,B,2
2,test,2,0.0,1-Back,0,m,Fri Sep 06 2024 10:02:52 GMT-0500 (Central Daylight Time),250834.39999997616,011_m_f_d_a.png,O,z,1508,4,1,2528.7000000476837,248305.69999992847,7018,VNB,B,3
3,test,2,0.0,1-Back,1,z,Fri Sep 06 2024 10:02:52 GMT-0500 (Central Daylight Time),252650.39999997616,007_m_m_d_a.png,O,z,791,5,1,1811.6000000238419,250838.79999995232,7018,VNB,B,4
4,test,2,0.0,1-Back,1,m,Fri Sep 06 2024 10:02:52 GMT-0500 (Central Daylight Time),254366.79999995232,016_y_m_h_a.png,O,m,695,6,1,1712.5,252654.29999995232,7018,VNB,B,5
5,test,2,1.0,1-Back,1,z,Fri Sep 06 2024 10:02:52 GMT-0500 (Central Daylight Time),256199.19999992847,005_o_f_h_a.png,O,z,811,7,1,1828.1999999284744,254371.0,7018,VNB,B,6
6,test,2,0.0,1-Back,1,m,Fri Sep 06 2024 10:02:52 GMT-0500 (Central Daylight Time),257995.89999997616,011_m_f_n_a.png,O,m,746,8,1,1792.8999999761581,256203.0,7018,VNB,B,7
7,test,2,0.0,1-Back,1,m,Fri Sep 06 2024 10:02:52 GMT-0500 (Central Daylight Time),260348.0,020_y_f_d_a.png,O,m,1164,9,1,2347.8000000715256,258000.19999992847,7018,VNB,B,8
8,test,2,0.0,1-Back,1,m,Fri Sep 06 2024 10:02:52 GMT-0500 (Central Daylight Time),262447.39999997616,007_m_m_n_a.png,O,m,1036,10,1,2094.8000000715256,260352.59999990463,7018,VNB,B,9
9,test,2,1.0,1-Back,1,m,Fri Sep 06 2024 10:02:52 GMT-0500 (Central Daylight Time),264579.59999990463,011_m_f_h_a.png,O,m,1073,11,1,2128.2999999523163,262451.2999999523,7018,VNB,B,10
10,test,2,0.0,1-Back,1,z,Fri Sep 06 2024 10:02:52 GMT-0500 (Central Daylight Time),266346.0,004_o_m_h_a.png,O,z,700,12,1,1762.7000000476837,264583.2999999523,7018,VNB,B,11
11,test,2,0.0,1-Back,1,m,Fri Sep 06 2024 10:02:52 GMT-0500 (Central Daylight Time),268162.2999999523,016_y_m_d_a.png,O,m,758,13,1,1811.6000000238419,266350.6999999285,7018,VNB,B,12
12,test,2,0.0,1-Back,1,m,Fri Sep 06 2024 10:02:52 GMT-0500 (Central Daylight Time),270461.5,005_o_f_n_a.png,O,m,1246,14,1,2295.3000000715256,268166.1999999285,7018,VNB,B,13
13,test,2,0.0,1-Back,1,z,Fri Sep 06 2024 10:02:52 GMT-0500 (Central Daylight Time),272610.6999999285,020_y_f_n_a.png,O,z,1099,15,1,2145.100000023842,270465.59999990463,7018,VNB,B,14
14,test,2,1.0,1-Back,1,m,Fri Sep 06 2024 10:02:52 GMT-0500 (Central Daylight Time),274843.5,007_m_m_h_a.png,O,m,1165,16,1,2228.5,272615.0,7018,VNB,B,15
15,test,2,0.0,1-Back,1,m,Fri Sep 06 2024 10:02:52 GMT-0500 (Central Daylight Time),276593.0,005_o_f_d_a.png,O,m,693,17,1,1745.7000000476837,274847.2999999523,7018,VNB,B,16
16,test,2,1.0,1-Back,1,z,Fri Sep 06 2024 10:02:52 GMT-0500 (Central Daylight Time),278192.2999999523,004_o_m_d_a.png,O,z,535,18,1,1594.8999999761581,276597.39999997616,7018,VNB,B,17
0,test,3,1.0,1-Back,,,Fri Sep 06 2024 10:02:52 GMT-0500 (Central Daylight Time),278192.2999999523,005_o_f_h_a.png,O,space,1401,1,1,1594.8999999761581,276597.39999997616,7018,VNB,B,0
1,test,3,0.0,1-Back,1,m,Fri Sep 06 2024 10:02:52 GMT-0500 (Central Daylight Time),283673.89999997616,011_m_f_d_a.png,O,m,867,2,1,1946.0,281727.89999997616,7018,VNB,B,1
1,test,3,1.0,1-Back,0,m,Fri Sep 06 2024 10:02:52 GMT-0500 (Central Daylight Time),285606.7999999523,007_m_m_n_a.png,O,z,878,3,1,1929.2999999523163,283677.5,7018,VNB,B,2
2,test,3,0.0,1-Back,1,z,Fri Sep 06 2024 10:02:52 GMT-0500 (Central Daylight Time),287339.59999990463,005_o_f_n_a.png,O,z,681,4,1,1729.0,285610.59999990463,7018,VNB,B,3
3,test,3,1.0,1-Back,1,m,Fri Sep 06 2024 10:02:52 GMT-0500 (Central Daylight Time),289305.39999997616,004_o_m_d_a.png,O,m,901,5,1,1962.1000000238419,287343.2999999523,7018,VNB,B,4
4,test,3,0.0,1-Back,1,m,Fri Sep 06 2024 10:02:52 GMT-0500 (Central Daylight Time),291338.1999999285,020_y_f_h_a.png,O,m,967,6,1,2029.1000000238419,289309.09999990463,7018,VNB,B,5
5,test,3,0.0,1-Back,1,z,Fri Sep 06 2024 10:02:52 GMT-0500 (Central Daylight Time),293054.2999999523,016_y_m_h_a.png,O,z,654,7,1,1712.8999999761581,291341.39999997616,7018,VNB,B,6
6,test,3,0.0,1-Back,1,m,Fri Sep 06 2024 10:02:52 GMT-0500 (Central Daylight Time),294970.5,011_m_f_n_a.png,O,m,857,8,1,1912.5,293058.0,7018,VNB,B,7
7,test,3,0.0,1-Back,1,m,Fri Sep 06 2024 10:02:52 GMT-0500 (Central Daylight Time),296786.59999990463,020_y_f_d_a.png,O,m,750,9,1,1811.5999999046326,294975.0,7018,VNB,B,8
8,test,3,1.0,1-Back,1,m,Fri Sep 06 2024 10:02:52 GMT-0500 (Central Daylight Time),298636.0,004_o_m_n_a.png,O,m,790,10,1,1846.0,296790.0,7018,VNB,B,9
9,test,3,0.0,1-Back,1,m,Fri Sep 06 2024 10:02:52 GMT-0500 (Central Daylight Time),300535.39999997616,007_m_m_h_a.png,O,m,836,11,1,1895.7000000476837,298639.6999999285,7018,VNB,B,10
10,test,3,0.0,1-Back,1,z,Fri Sep 06 2024 10:02:52 GMT-0500 (Central Daylight Time),302135.09999990463,011_m_f_h_a.png,O,z,537,12,1,1595.8999999761581,300539.1999999285,7018,VNB,B,11
11,test,3,1.0,1-Back,1,m,Fri Sep 06 2024 10:02:52 GMT-0500 (Central Daylight Time),303884.2999999523,005_o_f_d_a.png,O,m,697,13,1,1745.5,302138.7999999523,7018,VNB,B,12
12,test,3,0.0,1-Back,1,z,Fri Sep 06 2024 10:02:52 GMT-0500 (Central Daylight Time),305850.59999990463,007_m_m_d_a.png,O,z,916,14,1,1962.5,303888.09999990463,7018,VNB,B,13
13,test,3,0.0,1-Back,1,m,Fri Sep 06 2024 10:02:52 GMT-0500 (Central Daylight Time),307616.5,016_y_m_n_a.png,O,m,710,15,1,1762.4000000953674,305854.09999990463,7018,VNB,B,14
14,test,3,1.0,1-Back,1,m,Fri Sep 06 2024 10:02:52 GMT-0500 (Central Daylight Time),309515.89999997616,004_o_m_h_a.png,O,m,840,16,1,1895.3000000715256,307620.59999990463,7018,VNB,B,15
15,test,3,0.0,1-Back,1,m,Fri Sep 06 2024 10:02:52 GMT-0500 (Central Daylight Time),311315.1999999285,016_y_m_d_a.png,O,m,748,17,1,1795.1999999284744,309520.0,7018,VNB,B,16
16,test,3,1.0,1-Back,1,m,Fri Sep 06 2024 10:02:52 GMT-0500 (Central Daylight Time),313298.2999999523,020_y_f_n_a.png,O,m,925,18,1,1979.7999999523163,311318.5,7018,VNB,B,17
0,test,4,1.0,1-Back,,,Fri Sep 06 2024 10:02:52 GMT-0500 (Central Daylight Time),313298.2999999523,007_m_m_d_a.png,O,space,1391,1,1,1979.7999999523163,311318.5,7018,VNB,B,0
1,test,4,0.0,1-Back,1,z,Fri Sep 06 2024 10:02:52 GMT-0500 (Central Daylight Time),318679.6999999285,004_o_m_d_a.png,O,z,803,2,1,1862.0,316817.6999999285,7018,VNB,B,1
2,test,4,0.0,1-Back,1,m,Fri Sep 06 2024 10:02:52 GMT-0500 (Central Daylight Time),320579.0,016_y_m_h_a.png,O,m,840,3,1,1895.5,318683.5,7018,VNB,B,2
3,test,4,0.0,1-Back,1,m,Fri Sep 06 2024 10:02:52 GMT-0500 (Central Daylight Time),322378.39999997616,011_m_f_n_a.png,O,m,749,4,1,1795.5,320582.89999997616,7018,VNB,B,3
4,test,4,1.0,1-Back,1,m,Fri Sep 06 2024 10:02:52 GMT-0500 (Central Daylight Time),324161.2999999523,005_o_f_h_a.png,O,m,717,5,1,1779.1000000238419,322382.1999999285,7018,VNB,B,4
5,test,4,0.0,1-Back,1,m,Fri Sep 06 2024 10:02:52 GMT-0500 (Central Daylight Time),325894.09999990463,007_m_m_n_a.png,O,m,671,6,1,1729.0,324165.09999990463,7018,VNB,B,5
6,test,4,0.0,1-Back,1,m,Fri Sep 06 2024 10:02:52 GMT-0500 (Central Daylight Time),327643.59999990463,016_y_m_d_a.png,O,m,673,7,1,1745.2999999523163,325898.2999999523,7018,VNB,B,6
7,test,4,1.0,1-Back,1,z,Fri Sep 06 2024 10:02:52 GMT-0500 (Central Daylight Time),329460.7999999523,020_y_f_d_a.png,O,z,648,8,1,1812.7999999523163,327648.0,7018,VNB,B,7
8,test,4,0.0,1-Back,1,m,Fri Sep 06 2024 10:02:52 GMT-0500 (Central Daylight Time),331209.09999990463,011_m_f_h_a.png,O,m,676,9,1,1742.7999999523163,329466.2999999523,7018,VNB,B,8
8,test,4,0.0,1-Back,0,z,Fri Sep 06 2024 10:02:52 GMT-0500 (Central Daylight Time),332991.89999997616,004_o_m_h_a.png,O,m,727,10,1,1779.3000000715256,331212.59999990463,7018,VNB,B,9
9,test,4,1.0,1-Back,1,m,Fri Sep 06 2024 10:02:52 GMT-0500 (Central Daylight Time),334808.0,005_o_f_n_a.png,O,m,760,11,1,1812.1000000238419,332995.89999997616,7018,VNB,B,10
10,test,4,0.0,1-Back,1,m,Fri Sep 06 2024 10:02:52 GMT-0500 (Central Daylight Time),337024.09999990463,011_m_f_d_a.png,O,m,1160,12,1,2211.899999976158,334812.1999999285,7018,VNB,B,11
11,test,4,0.0,1-Back,1,m,Fri Sep 06 2024 10:02:52 GMT-0500 (Central Daylight Time),339273.2999999523,020_y_f_n_a.png,O,m,1218,13,1,2245.899999976158,337027.39999997616,7018,VNB,B,12
12,test,4,0.0,1-Back,1,m,Fri Sep 06 2024 10:02:52 GMT-0500 (Central Daylight Time),341072.59999990463,005_o_f_d_a.png,O,m,743,14,1,1796.0,339276.59999990463,7018,VNB,B,13
13,test,4,0.0,1-Back,1,m,Fri Sep 06 2024 10:02:52 GMT-0500 (Central Daylight Time),342988.6999999285,020_y_f_h_a.png,O,m,855,15,1,1912.1999999284744,341076.5,7018,VNB,B,14
14,test,4,1.0,1-Back,1,z,Fri Sep 06 2024 10:02:52 GMT-0500 (Central Daylight Time),344604.89999997616,007_m_m_h_a.png,O,z,556,16,1,1612.3000000715256,342992.59999990463,7018,VNB,B,15
15,test,4,0.0,1-Back,1,m,Fri Sep 06 2024 10:02:52 GMT-0500 (Central Daylight Time),346304.2999999523,004_o_m_n_a.png,O,m,669,17,1,1695.5,344608.7999999523,7018,VNB,B,16
16,test,4,1.0,1-Back,1,z,Fri Sep 06 2024 10:02:52 GMT-0500 (Central Daylight Time),348286.89999997616,016_y_m_n_a.png,O,z,928,18,1,1978.6000000238419,346308.2999999523,7018,VNB,B,17
0,test,5,1.0,1-Back,,,Fri Sep 06 2024 10:02:52 GMT-0500 (Central Daylight Time),348286.89999997616,004_o_m_n_a.png,O,space,1338,1,1,1978.6000000238419,346308.2999999523,7018,VNB,B,0
1,test,5,1.0,1-Back,1,m,Fri Sep 06 2024 10:02:52 GMT-0500 (Central Daylight Time),353536.59999990463,005_o_f_h_a.png,O,m,719,2,1,1779.6999999284744,351756.89999997616,7018,VNB,B,1
1,test,5,0.0,1-Back,0,m,Fri Sep 06 2024 10:02:52 GMT-0500 (Central Daylight Time),355268.09999990463,016_y_m_d_a.png,O,z,656,3,1,1727.7999999523163,353540.2999999523,7018,VNB,B,2
2,test,5,0.0,1-Back,1,z,Fri Sep 06 2024 10:02:52 GMT-0500 (Central Daylight Time),357434.1999999285,004_o_m_d_a.png,O,z,1108,4,1,2162.1999999284744,355272.0,7018,VNB,B,3
3,test,5,0.0,1-Back,1,m,Fri Sep 06 2024 10:02:52 GMT-0500 (Central Daylight Time),359300.5,011_m_f_h_a.png,O,m,806,5,1,1862.3000000715256,357438.1999999285,7018,VNB,B,4
4,test,5,0.0,1-Back,1,m,Fri Sep 06 2024 10:02:52 GMT-0500 (Central Daylight Time),360950.09999990463,020_y_f_n_a.png,O,m,588,6,1,1646.0999999046326,359304.0,7018,VNB,B,5
5,test,5,1.0,1-Back,1,z,Fri Sep 06 2024 10:02:52 GMT-0500 (Central Daylight Time),362582.59999990463,005_o_f_n_a.png,O,z,604,7,1,1628.6999999284744,360953.89999997616,7018,VNB,B,6
6,test,5,0.0,1-Back,1,m,Fri Sep 06 2024 10:02:52 GMT-0500 (Central Daylight Time),364348.89999997616,011_m_f_d_a.png,O,m,705,8,1,1762.2000000476837,362586.6999999285,7018,VNB,B,7
7,test,5,0.0,1-Back,1,m,Fri Sep 06 2024 10:02:52 GMT-0500 (Central Daylight Time),366498.09999990463,016_y_m_h_a.png,O,m,1099,9,1,2145.0999999046326,364353.0,7018,VNB,B,8
8,test,5,0.0,1-Back,1,m,Fri Sep 06 2024 10:02:52 GMT-0500 (Central Daylight Time),368097.39999997616,020_y_f_d_a.png,O,m,567,10,1,1595.8999999761581,366501.5,7018,VNB,B,9
8,test,5,0.0,1-Back,0,m,Fri Sep 06 2024 10:02:52 GMT-0500 (Central Daylight Time),370063.5,007_m_m_n_a.png,O,z,886,11,1,1962.0,368101.5,7018,VNB,B,10
9,test,5,1.0,1-Back,1,z,Fri Sep 06 2024 10:02:52 GMT-0500 (Central Daylight Time),371979.1999999285,011_m_f_n_a.png,O,z,864,12,1,1911.6000000238419,370067.59999990463,7018,VNB,B,11
10,test,5,0.0,1-Back,1,m,Fri Sep 06 2024 10:02:52 GMT-0500 (Central Daylight Time),373695.89999997616,004_o_m_h_a.png,O,m,660,13,1,1712.7000000476837,371983.1999999285,7018,VNB,B,12
11,test,5,0.0,1-Back,1,z,Fri Sep 06 2024 10:02:52 GMT-0500 (Central Daylight Time),375462.0,007_m_m_h_a.png,O,z,712,14,1,1762.3000000715256,373699.6999999285,7018,VNB,B,13
12,test,5,1.0,1-Back,1,m,Fri Sep 06 2024 10:02:52 GMT-0500 (Central Daylight Time),377244.6999999285,005_o_f_d_a.png,O,m,730,15,1,1779.0,375465.6999999285,7018,VNB,B,14
13,test,5,0.0,1-Back,1,m,Fri Sep 06 2024 10:02:52 GMT-0500 (Central Daylight Time),378994.2999999523,016_y_m_n_a.png,O,m,691,16,1,1745.6000000238419,377248.6999999285,7018,VNB,B,15
14,test,5,0.0,1-Back,1,m,Fri Sep 06 2024 10:02:52 GMT-0500 (Central Daylight Time),380893.5,020_y_f_h_a.png,O,m,838,17,1,1895.2000000476837,378998.2999999523,7018,VNB,B,16
15,test,5,0.0,1-Back,1,m,Fri Sep 06 2024 10:02:52 GMT-0500 (Central Daylight Time),382726.1999999285,007_m_m_d_a.png,O,m,754,18,1,1828.7999999523163,380897.39999997616,7018,VNB,B,17
0,prac,1,0.0,2-Back,,,Fri Sep 06 2024 10:02:52 GMT-0500 (Central Daylight Time),382726.1999999285,011_m_f_n_a.png,O,space,12404,1,1,1828.7999999523163,380897.39999997616,7018,VNB,B,0
0,prac,1,0.0,2-Back,,,Fri Sep 06 2024 10:02:52 GMT-0500 (Central Daylight Time),382726.1999999285,005_o_f_h_a.png,O,space,12404,2,1,1828.7999999523163,380897.39999997616,7018,VNB,B,0
1,prac,1,0.0,2-Back,1,m,Fri Sep 06 2024 10:02:52 GMT-0500 (Central Daylight Time),496124.1999999285,004_o_m_d_a.png,O,m,770,3,1,1627.6999999284744,494496.5,7018,VNB,B,1
2,prac,1,1.0,2-Back,1,z,Fri Sep 06 2024 10:02:52 GMT-0500 (Central Daylight Time),497656.7999999523,007_m_m_h_a.png,O,z,638,4,1,1527.0,496129.7999999523,7018,VNB,B,2
3,prac,1,0.0,2-Back,1,m,Fri Sep 06 2024 10:02:52 GMT-0500 (Central Daylight Time),499507.5,020_y_f_n_a.png,O,m,983,5,1,1845.0,497662.5,7018,VNB,B,3
3,prac,1,1.0,2-Back,0,z,Fri Sep 06 2024 10:02:52 GMT-0500 (Central Daylight Time),501239.0,004_o_m_h_a.png,O,m,866,6,1,1726.0,499513.0,7018,VNB,B,4
4,prac,1,1.0,2-Back,1,z,Fri Sep 06 2024 10:02:52 GMT-0500 (Central Daylight Time),503321.7999999523,016_y_m_n_a.png,O,z,1187,7,1,2076.7000000476837,501245.09999990463,7018,VNB,B,5
5,prac,1,0.0,2-Back,1,m,Fri Sep 06 2024 10:02:52 GMT-0500 (Central Daylight Time),505204.59999990463,011_m_f_d_a.png,O,m,993,8,1,1876.5,503328.09999990463,7018,VNB,B,6
6,prac,1,0.0,2-Back,1,m,Fri Sep 06 2024 10:02:52 GMT-0500 (Central Daylight Time),507120.5,005_o_f_d_a.png,O,m,1022,9,1,1910.5,505210.0,7018,VNB,B,7
7,prac,1,0.0,2-Back,1,m,Fri Sep 06 2024 10:02:52 GMT-0500 (Central Daylight Time),508853.39999997616,007_m_m_h_a.png,O,m,948,10,1,1727.7000000476837,507125.6999999285,7018,VNB,B,8
8,prac,1,1.0,2-Back,1,z,Fri Sep 06 2024 10:02:52 GMT-0500 (Central Daylight Time),510603.09999990463,020_y_f_d_a.png,O,z,879,11,1,1744.5,508858.59999990463,7018,VNB,B,9
8,prac,1,0.0,2-Back,0,m,Fri Sep 06 2024 10:02:52 GMT-0500 (Central Daylight Time),512519.89999997616,004_o_m_n_a.png,O,z,1049,12,1,1911.6000000238419,510608.2999999523,7018,VNB,B,10
0,test,1,0.0,2-Back,,,Fri Sep 06 2024 10:02:52 GMT-0500 (Central Daylight Time),512519.89999997616,016_y_m_h_a.png,O,space,8722,1,1,1911.6000000238419,510608.2999999523,7018,VNB,B,0
0,test,1,0.0,2-Back,,,Fri Sep 06 2024 10:02:52 GMT-0500 (Central Daylight Time),512519.89999997616,005_o_f_n_a.png,O,space,8722,2,1,1911.6000000238419,510608.2999999523,7018,VNB,B,0
1,test,1,0.0,2-Back,1,z,Fri Sep 06 2024 10:02:52 GMT-0500 (Central Daylight Time),536994.5999999046,004_o_m_h_a.png,O,z,766,3,1,1778.8999999761581,535215.6999999285,7018,VNB,B,1
2,test,1,0.0,2-Back,1,m,Fri Sep 06 2024 10:02:52 GMT-0500 (Central Daylight Time),538893.8999999762,011_m_f_d_a.png,O,m,871,4,1,1895.6000000238419,536998.2999999523,7018,VNB,B,2
3,test,1,1.0,2-Back,1,m,Fri Sep 06 2024 10:02:52 GMT-0500 (Central Daylight Time),540780.1999999285,016_y_m_n_a.png,O,m,818,5,1,1882.6999999284744,538897.5,7018,VNB,B,3
3,test,1,0.0,2-Back,0,z,Fri Sep 06 2024 10:02:52 GMT-0500 (Central Daylight Time),542692.5999999046,020_y_f_d_a.png,O,m,847,6,1,1908.0999999046326,540784.5,7018,VNB,B,4
4,test,1,0.0,2-Back,1,m,Fri Sep 06 2024 10:02:52 GMT-0500 (Central Daylight Time),544558.7999999523,007_m_m_h_a.png,O,m,837,7,1,1862.2000000476837,542696.5999999046,7018,VNB,B,5
4,test,1,1.0,2-Back,0,m,Fri Sep 06 2024 10:02:52 GMT-0500 (Central Daylight Time),546524.8999999762,020_y_f_n_a.png,O,z,897,8,1,1962.0,544562.8999999762,7018,VNB,B,6
5,test,1,0.0,2-Back,1,z,Fri Sep 06 2024 10:02:52 GMT-0500 (Central Daylight Time),548057.7999999523,005_o_f_h_a.png,O,z,467,9,1,1529.2999999523163,546528.5,7018,VNB,B,7
6,test,1,0.0,2-Back,1,m,Fri Sep 06 2024 10:02:52 GMT-0500 (Central Daylight Time),550140.1999999285,004_o_m_d_a.png,O,m,1030,10,1,2078.5,548061.6999999285,7018,VNB,B,8
7,test,1,1.0,2-Back,1,m,Fri Sep 06 2024 10:02:52 GMT-0500 (Central Daylight Time),552206.1999999285,007_m_m_d_a.png,O,m,1004,11,1,2062.7999999523163,550143.3999999762,7018,VNB,B,9
8,test,1,0.0,2-Back,1,m,Fri Sep 06 2024 10:02:52 GMT-0500 (Central Daylight Time),554539.0,011_m_f_n_a.png,O,m,1267,12,1,2328.8000000715256,552210.1999999285,7018,VNB,B,10
9,test,1,0.0,2-Back,1,m,Fri Sep 06 2024 10:02:52 GMT-0500 (Central Daylight Time),556405.0999999046,020_y_f_h_a.png,O,m,838,13,1,1862.3999999761581,554542.6999999285,7018,VNB,B,11
10,test,1,0.0,2-Back,1,z,Fri Sep 06 2024 10:02:52 GMT-0500 (Central Daylight Time),558237.6999999285,007_m_m_n_a.png,O,z,779,14,1,1828.3999999761581,556409.2999999523,7018,VNB,B,12
11,test,1,0.0,2-Back,1,m,Fri Sep 06 2024 10:02:52 GMT-0500 (Central Daylight Time),560170.5999999046,016_y_m_d_a.png,O,m,882,15,1,1928.8999999761581,558241.6999999285,7018,VNB,B,13
12,test,1,1.0,2-Back,1,m,Fri Sep 06 2024 10:02:52 GMT-0500 (Central Daylight Time),562069.8999999762,011_m_f_h_a.png,O,m,838,16,1,1895.6000000238419,560174.2999999523,7018,VNB,B,14
13,test,1,0.0,2-Back,1,z,Fri Sep 06 2024 10:02:52 GMT-0500 (Central Daylight Time),564352.1999999285,005_o_f_d_a.png,O,z,1259,17,1,2279.0,562073.1999999285,7018,VNB,B,15
14,test,1,0.0,2-Back,1,m,Fri Sep 06 2024 10:02:52 GMT-0500 (Central Daylight Time),566302.0999999046,004_o_m_n_a.png,O,m,888,18,1,1945.8999999761581,564356.1999999285,7018,VNB,B,16
0,test,2,0.0,2-Back,,,Fri Sep 06 2024 10:02:52 GMT-0500 (Central Daylight Time),566302.0999999046,007_m_m_h_a.png,O,space,1123,1,1,1945.8999999761581,564356.1999999285,7018,VNB,B,0
0,test,2,0.0,2-Back,,,Fri Sep 06 2024 10:02:52 GMT-0500 (Central Daylight Time),566302.0999999046,020_y_f_n_a.png,O,space,1123,2,1,1945.8999999761581,564356.1999999285,7018,VNB,B,0
1,test,2,1.0,2-Back,1,z,Fri Sep 06 2024 10:02:52 GMT-0500 (Central Daylight Time),574466.0,005_o_f_h_a.png,O,z,775,3,1,1795.5,572670.5,7018,VNB,B,1
2,test,2,0.0,2-Back,1,m,Fri Sep 06 2024 10:02:52 GMT-0500 (Central Daylight Time),576315.0999999046,004_o_m_d_a.png,O,m,831,4,1,1845.6999999284744,574469.3999999762,7018,VNB,B,2
3,test,2,0.0,2-Back,1,m,Fri Sep 06 2024 10:02:52 GMT-0500 (Central Daylight Time),578914.5999999046,011_m_f_d_a.png,O,m,1567,5,1,2595.2999999523163,576319.2999999523,7018,VNB,B,3
4,test,2,0.0,2-Back,1,m,Fri Sep 06 2024 10:02:52 GMT-0500 (Central Daylight Time),581030.6999999285,016_y_m_h_a.png,O,m,1087,6,1,2113.0,578917.6999999285,7018,VNB,B,4
4,test,2,0.0,2-Back,0,m,Fri Sep 06 2024 10:02:52 GMT-0500 (Central Daylight Time),582896.6999999285,005_o_f_n_a.png,O,z,835,7,1,1862.1000000238419,581034.5999999046,7018,VNB,B,5
4,test,2,1.0,2-Back,0,z,Fri Sep 06 2024 10:02:52 GMT-0500 (Central Daylight Time),584613.0,004_o_m_h_a.png,O,m,697,8,1,1712.4000000953674,582900.5999999046,7018,VNB,B,6
5,test,2,0.0,2-Back,1,m,Fri Sep 06 2024 10:02:52 GMT-0500 (Central Daylight Time),586695.5999999046,020_y_f_d_a.png,O,m,1061,9,1,2078.7999999523163,584616.7999999523,7018,VNB,B,7
5,test,2,0.0,2-Back,0,m,Fri Sep 06 2024 10:02:52 GMT-0500 (Central Daylight Time),588878.1999999285,016_y_m_d_a.png,O,z,1069,10,1,2178.600000023842,586699.5999999046,7018,VNB,B,8
6,test,2,0.0,2-Back,1,m,Fri Sep 06 2024 10:02:52 GMT-0500 (Central Daylight Time),591527.1999999285,007_m_m_n_a.png,O,m,1619,11,1,2645.2999999523163,588881.8999999762,7018,VNB,B,9
7,test,2,0.0,2-Back,1,m,Fri Sep 06 2024 10:02:52 GMT-0500 (Central Daylight Time),593443.3999999762,011_m_f_h_a.png,O,m,890,12,1,1912.3000000715256,591531.0999999046,7018,VNB,B,10
8,test,2,1.0,2-Back,1,z,Fri Sep 06 2024 10:02:52 GMT-0500 (Central Daylight Time),595592.7999999523,004_o_m_n_a.png,O,z,1126,13,1,2145.899999976158,593446.8999999762,7018,VNB,B,11
9,test,2,0.0,2-Back,1,m,Fri Sep 06 2024 10:02:52 GMT-0500 (Central Daylight Time),597208.6999999285,005_o_f_d_a.png,O,m,593,14,1,1612.1999999284744,595596.5,7018,VNB,B,12
10,test,2,0.0,2-Back,1,m,Fri Sep 06 2024 10:02:52 GMT-0500 (Central Daylight Time),599258.1999999285,020_y_f_h_a.png,O,m,1016,15,1,2045.6999999284744,597212.5,7018,VNB,B,13
11,test,2,0.0,2-Back,1,z,Fri Sep 06 2024 10:02:52 GMT-0500 (Central Daylight Time),601124.3999999762,007_m_m_d_a.png,O,z,847,16,1,1862.3000000715256,599262.0999999046,7018,VNB,B,14
11,test,2,0.0,2-Back,0,m,Fri Sep 06 2024 10:02:52 GMT-0500 (Central Daylight Time),602840.5,016_y_m_n_a.png,O,z,685,17,1,1712.4000000953674,601128.0999999046,7018,VNB,B,15
12,test,2,1.0,2-Back,1,m,Fri Sep 06 2024 10:02:52 GMT-0500 (Central Daylight Time),605173.0999999046,011_m_f_n_a.png,O,m,1305,18,1,2328.6999999284744,602844.3999999762,7018,VNB,B,16
0,test,3,1.0,2-Back,,,Fri Sep 06 2024 10:02:52 GMT-0500 (Central Daylight Time),605173.0999999046,004_o_m_n_a.png,O,space,1228,1,1,2328.6999999284744,602844.3999999762,7018,VNB,B,0
0,test,3,1.0,2-Back,,,Fri Sep 06 2024 10:02:52 GMT-0500 (Central Daylight Time),605173.0999999046,005_o_f_d_a.png,O,space,1228,2,1,2328.6999999284744,602844.3999999762,7018,VNB,B,0
1,test,3,0.0,2-Back,1,m,Fri Sep 06 2024 10:02:52 GMT-0500 (Central Daylight Time),613537.0,020_y_f_h_a.png,O,m,951,3,1,1978.5,611558.5,7018,VNB,B,1
1,test,3,0.0,2-Back,0,z,Fri Sep 06 2024 10:02:52 GMT-0500 (Central Daylight Time),615903.0,011_m_f_d_a.png,O,m,1336,4,1,2362.2000000476837,613540.7999999523,7018,VNB,B,2
2,test,3,1.0,2-Back,1,m,Fri Sep 06 2024 10:02:52 GMT-0500 (Central Daylight Time),618002.1999999285,016_y_m_n_a.png,O,m,1074,5,1,2095.399999976158,615906.7999999523,7018,VNB,B,3
2,test,3,0.0,2-Back,0,m,Fri Sep 06 2024 10:02:52 GMT-0500 (Central Daylight Time),620434.7999999523,004_o_m_h_a.png,O,z,1415,6,1,2428.7999999523163,618006.0,7018,VNB,B,4
2,test,3,0.0,2-Back,0,z,Fri Sep 06 2024 10:02:52 GMT-0500 (Central Daylight Time),622617.5,020_y_f_n_a.png,O,m,1158,7,1,2179.5,620438.0,7018,VNB,B,5
2,test,3,1.0,2-Back,0,m,Fri Sep 06 2024 10:02:52 GMT-0500 (Central Daylight Time),625383.2999999523,007_m_m_d_a.png,O,z,1736,8,1,2762.100000023842,622621.1999999285,7018,VNB,B,6
3,test,3,0.0,2-Back,1,m,Fri Sep 06 2024 10:02:52 GMT-0500 (Central Daylight Time),627666.0999999046,016_y_m_d_a.png,O,m,1250,9,1,2279.0,625387.0999999046,7018,VNB,B,7
4,test,3,0.0,2-Back,1,m,Fri Sep 06 2024 10:02:52 GMT-0500 (Central Daylight Time),629582.0,005_o_f_h_a.png,O,m,895,10,1,1912.0,627670.0,7018,VNB,B,8
4,test,3,1.0,2-Back,0,m,Fri Sep 06 2024 10:02:52 GMT-0500 (Central Daylight Time),631664.6999999285,011_m_f_n_a.png,O,z,1051,11,1,2078.6999999284744,629586.0,7018,VNB,B,9
5,test,3,1.0,2-Back,1,z,Fri Sep 06 2024 10:02:52 GMT-0500 (Central Daylight Time),633847.3999999762,007_m_m_h_a.png,O,z,1153,12,1,2179.100000023842,631668.2999999523,7018,VNB,B,10
6,test,3,0.0,2-Back,1,m,Fri Sep 06 2024 10:02:52 GMT-0500 (Central Daylight Time),636579.8999999762,020_y_f_d_a.png,O,m,1653,13,1,2728.899999976158,633851.0,7018,VNB,B,11
6,test,3,0.0,2-Back,0,m,Fri Sep 06 2024 10:02:52 GMT-0500 (Central Daylight Time),638712.5,005_o_f_n_a.png,O,z,1109,14,1,2128.7000000476837,636583.7999999523,7018,VNB,B,12
7,test,3,0.0,2-Back,1,z,Fri Sep 06 2024 10:02:52 GMT-0500 (Central Daylight Time),641045.1999999285,004_o_m_d_a.png,O,z,1313,15,1,2328.7999999523163,638716.3999999762,7018,VNB,B,13
8,test,3,1.0,2-Back,1,m,Fri Sep 06 2024 10:02:52 GMT-0500 (Central Daylight Time),643044.3999999762,011_m_f_h_a.png,O,m,972,16,1,1995.7000000476837,641048.6999999285,7018,VNB,B,14
9,test,3,0.0,2-Back,1,m,Fri Sep 06 2024 10:02:52 GMT-0500 (Central Daylight Time),645310.5,007_m_m_n_a.png,O,m,1245,17,1,2262.3000000715256,643048.1999999285,7018,VNB,B,15
10,test,3,0.0,2-Back,1,z,Fri Sep 06 2024 10:02:52 GMT-0500 (Central Daylight Time),646976.5,016_y_m_h_a.png,O,z,635,18,1,1662.5,645314.0,7018,VNB,B,16
0,test,4,0.0,2-Back,,,Fri Sep 06 2024 10:02:52 GMT-0500 (Central Daylight Time),646976.5,011_m_f_n_a.png,O,space,1256,1,1,1662.5,645314.0,7018,VNB,B,0
0,test,4,0.0,2-Back,,,Fri Sep 06 2024 10:02:52 GMT-0500 (Central Daylight Time),646976.5,004_o_m_n_a.png,O,space,1256,2,1,1662.5,645314.0,7018,VNB,B,0
1,test,4,1.0,2-Back,1,m,Fri Sep 06 2024 10:02:52 GMT-0500 (Central Daylight Time),655190.5999999046,016_y_m_h_a.png,O,m,687,3,1,1712.5999999046326,653478.0,7018,VNB,B,1
2,test,4,1.0,2-Back,1,m,Fri Sep 06 2024 10:02:52 GMT-0500 (Central Daylight Time),657273.3999999762,005_o_f_d_a.png,O,m,1049,4,1,2079.2000000476837,655194.1999999285,7018,VNB,B,2
3,test,4,0.0,2-Back,1,z,Fri Sep 06 2024 10:02:52 GMT-0500 (Central Daylight Time),659122.7999999523,004_o_m_h_a.png,O,z,786,5,1,1845.3999999761581,657277.3999999762,7018,VNB,B,3
3,test,4,0.0,2-Back,0,m,Fri Sep 06 2024 10:02:52 GMT-0500 (Central Daylight Time),661272.0999999046,007_m_m_n_a.png,O,z,1118,6,1,2145.5999999046326,659126.5,7018,VNB,B,4
4,test,4,0.0,2-Back,1,m,Fri Sep 06 2024 10:02:52 GMT-0500 (Central Daylight Time),663121.5999999046,011_m_f_d_a.png,O,m,817,7,1,1845.5999999046326,661276.0,7018,VNB,B,5
5,test,4,0.0,2-Back,1,z,Fri Sep 06 2024 10:02:52 GMT-0500 (Central Daylight Time),665487.3999999762,020_y_f_n_a.png,O,z,1344,8,1,2362.100000023842,663125.2999999523,7018,VNB,B,6
6,test,4,1.0,2-Back,1,m,Fri Sep 06 2024 10:02:52 GMT-0500 (Central Daylight Time),667487.0,005_o_f_h_a.png,O,m,978,9,1,1996.4000000953674,665490.5999999046,7018,VNB,B,7
7,test,4,0.0,2-Back,1,m,Fri Sep 06 2024 10:02:52 GMT-0500 (Central Daylight Time),669519.5,007_m_m_h_a.png,O,m,1003,10,1,2028.7000000476837,667490.7999999523,7018,VNB,B,8
7,test,4,0.0,2-Back,0,m,Fri Sep 06 2024 10:02:52 GMT-0500 (Central Daylight Time),671202.2999999523,020_y_f_d_a.png,O,z,650,11,1,1678.7999999523163,669523.5,7018,VNB,B,9
8,test,4,0.0,2-Back,1,m,Fri Sep 06 2024 10:02:52 GMT-0500 (Central Daylight Time),673568.2999999523,016_y_m_n_a.png,O,m,1343,12,1,2362.7000000476837,671205.5999999046,7018,VNB,B,10
8,test,4,0.0,2-Back,0,z,Fri Sep 06 2024 10:02:52 GMT-0500 (Central Daylight Time),675867.2999999523,004_o_m_d_a.png,O,m,1281,13,1,2295.2999999523163,673572.0,7018,VNB,B,11
9,test,4,1.0,2-Back,1,m,Fri Sep 06 2024 10:02:52 GMT-0500 (Central Daylight Time),677900.2999999523,011_m_f_h_a.png,O,m,1006,14,1,2029.2999999523163,675871.0,7018,VNB,B,12
9,test,4,1.0,2-Back,0,m,Fri Sep 06 2024 10:02:52 GMT-0500 (Central Daylight Time),680216.0999999046,020_y_f_h_a.png,O,z,1285,15,1,2311.7999999523163,677904.2999999523,7018,VNB,B,13
9,test,4,0.0,2-Back,0,m,Fri Sep 06 2024 10:02:52 GMT-0500 (Central Daylight Time),682515.5,005_o_f_n_a.png,O,z,1273,16,1,2296.2000000476837,680219.2999999523,7018,VNB,B,14
10,test,4,0.0,2-Back,1,m,Fri Sep 06 2024 10:02:52 GMT-0500 (Central Daylight Time),684731.1999999285,016_y_m_d_a.png,O,m,1198,17,1,2211.899999976158,682519.2999999523,7018,VNB,B,15
11,test,4,1.0,2-Back,1,m,Fri Sep 06 2024 10:02:52 GMT-0500 (Central Daylight Time),686797.3999999762,007_m_m_d_a.png,O,m,1046,18,1,2062.7000000476837,684734.6999999285,7018,VNB,B,16
0,test,5,1.0,2-Back,,,Fri Sep 06 2024 10:02:52 GMT-0500 (Central Daylight Time),686797.3999999762,020_y_f_d_a.png,O,space,1323,1,1,2062.7000000476837,684734.6999999285,7018,VNB,B,0
0,test,5,1.0,2-Back,,,Fri Sep 06 2024 10:02:52 GMT-0500 (Central Daylight Time),686797.3999999762,005_o_f_h_a.png,O,space,1323,2,1,2062.7000000476837,684734.6999999285,7018,VNB,B,0
1,test,5,1.0,2-Back,1,z,Fri Sep 06 2024 10:02:52 GMT-0500 (Central Daylight Time),695927.8999999762,004_o_m_d_a.png,O,z,1510,3,1,2562.600000023842,693365.2999999523,7018,VNB,B,1
2,test,5,1.0,2-Back,1,m,Fri Sep 06 2024 10:02:52 GMT-0500 (Central Daylight Time),697927.3999999762,011_m_f_n_a.png,O,m,978,4,1,1995.8999999761581,695931.5,7018,VNB,B,2
3,test,5,0.0,2-Back,1,m,Fri Sep 06 2024 10:02:52 GMT-0500 (Central Daylight Time),700343.2999999523,007_m_m_h_a.png,O,m,1361,5,1,2412.0,697931.2999999523,7018,VNB,B,3
4,test,5,0.0,2-Back,1,z,Fri Sep 06 2024 10:02:52 GMT-0500 (Central Daylight Time),702309.1999999285,020_y_f_n_a.png,O,z,913,6,1,1962.5,700346.6999999285,7018,VNB,B,4
4,test,5,0.0,2-Back,0,m,Fri Sep 06 2024 10:02:52 GMT-0500 (Central Daylight Time),704608.3999999762,005_o_f_d_a.png,O,z,1243,7,1,2295.3000000715256,702313.0999999046,7018,VNB,B,5
5,test,5,0.0,2-Back,1,m,Fri Sep 06 2024 10:02:52 GMT-0500 (Central Daylight Time),706874.3999999762,004_o_m_h_a.png,O,m,1215,8,1,2262.2000000476837,704612.1999999285,7018,VNB,B,6
5,test,5,1.0,2-Back,0,z,Fri Sep 06 2024 10:02:52 GMT-0500 (Central Daylight Time),709090.2999999523,011_m_f_d_a.png,O,m,1165,9,1,2212.2000000476837,706878.0999999046,7018,VNB,B,7
6,test,5,0.0,2-Back,1,m,Fri Sep 06 2024 10:02:52 GMT-0500 (Central Daylight Time),711039.7999999523,016_y_m_n_a.png,O,m,893,10,1,1946.2999999523163,709093.5,7018,VNB,B,8
7,test,5,0.0,2-Back,1,m,Fri Sep 06 2024 10:02:52 GMT-0500 (Central Daylight Time),713239.1999999285,007_m_m_n_a.png,O,m,1136,11,1,2195.600000023842,711043.5999999046,7018,VNB,B,9
8,test,5,0.0,2-Back,1,m,Fri Sep 06 2024 10:02:52 GMT-0500 (Central Daylight Time),715188.2999999523,020_y_f_h_a.png,O,m,897,12,1,1945.3999999761581,713242.8999999762,7018,VNB,B,10
8,test,5,0.0,2-Back,0,m,Fri Sep 06 2024 10:02:52 GMT-0500 (Central Daylight Time),716838.0,016_y_m_d_a.png,O,z,587,13,1,1645.8000000715256,715192.1999999285,7018,VNB,B,11
9,test,5,1.0,2-Back,1,z,Fri Sep 06 2024 10:02:52 GMT-0500 (Central Daylight Time),718953.7999999523,011_m_f_h_a.png,O,z,1058,14,1,2111.5,716842.2999999523,7018,VNB,B,12
9,test,5,0.0,2-Back,0,m,Fri Sep 06 2024 10:02:52 GMT-0500 (Central Daylight Time),721669.7999999523,004_o_m_n_a.png,O,z,1687,15,1,2712.2000000476837,718957.5999999046,7018,VNB,B,13
9,test,5,0.0,2-Back,0,m,Fri Sep 06 2024 10:02:52 GMT-0500 (Central Daylight Time),723685.8999999762,007_m_m_d_a.png,O,z,954,16,1,2012.6000000238419,721673.2999999523,7018,VNB,B,14
9,test,5,0.0,2-Back,0,z,Fri Sep 06 2024 10:02:52 GMT-0500 (Central Daylight Time),725368.5999999046,005_o_f_n_a.png,O,m,618,17,1,1678.7999999523163,723689.7999999523,7018,VNB,B,15
10,test,5,1.0,2-Back,1,m,Fri Sep 06 2024 10:02:52 GMT-0500 (Central Daylight Time),727334.5999999046,016_y_m_h_a.png,O,m,945,18,1,1963.0,725371.5999999046,7018,VNB,B,16
