acc_sum,block,block_c,change,condition,correct,correct_response,datetime,endtime,face,project,response,response_time,row_sel,session_number,start_end,starttime,subject_id,task,task_vers,trial
0,prac,1,,1-Back,,,Fri Jan 17 2025 13:27:43 GMT-0500 (Eastern Standard Time),,005_o_f_d_a.png,I,space,13153,1,3,,,9002,VNB,B,0
1,prac,1,0.0,1-Back,1,m,Fri Jan 17 2025 13:27:43 GMT-0500 (Eastern Standard Time),147293.10000038147,020_y_f_n_a.png,I,m,889,2,3,1804.6000003814697,145488.5,9002,VNB,B,1
2,prac,1,0.0,1-Back,1,m,Fri Jan 17 2025 13:27:43 GMT-0500 (Eastern Standard Time),149693.10000038147,007_m_m_h_a.png,I,m,1444,3,3,2386.300001144409,147306.79999923706,9002,VNB,B,2
3,prac,1,0.0,1-Back,1,m,Fri Jan 17 2025 13:27:43 GMT-0500 (Eastern Standard Time),151876.20000076294,016_y_m_d_a.png,I,m,1231,4,3,2169.900001525879,149706.29999923706,9002,VNB,B,3
4,prac,1,0.0,1-Back,1,m,Fri Jan 17 2025 13:27:43 GMT-0500 (Eastern Standard Time),153976.20000076294,005_o_f_n_a.png,I,m,1161,5,3,2088.0,151888.20000076294,9002,VNB,B,4
5,prac,1,1.0,1-Back,1,z,Fri Jan 17 2025 13:27:43 GMT-0500 (Eastern Standard Time),155859.60000038147,016_y_m_n_a.png,I,z,928,6,3,1869.6000003814697,153990.0,9002,VNB,B,5
6,prac,1,0.0,1-Back,1,m,Fri Jan 17 2025 13:27:43 GMT-0500 (Eastern Standard Time),157709.39999961853,004_o_m_h_a.png,I,m,930,7,3,1836.5,155872.89999961853,9002,VNB,B,6
7,prac,1,0.0,1-Back,1,m,Fri Jan 17 2025 13:27:43 GMT-0500 (Eastern Standard Time),160109.20000076294,011_m_f_d_a.png,I,m,1451,8,3,2386.6000003814697,157722.60000038147,9002,VNB,B,7
7,prac,1,1.0,1-Back,0,z,Fri Jan 17 2025 13:27:43 GMT-0500 (Eastern Standard Time),162409.39999961853,020_y_f_d_a.png,I,m,1371,9,3,2290.199998855591,160119.20000076294,9002,VNB,B,8
8,prac,1,0.0,1-Back,1,m,Fri Jan 17 2025 13:27:43 GMT-0500 (Eastern Standard Time),165042.89999961853,007_m_m_n_a.png,I,m,1678,10,3,2610.0,162432.89999961853,9002,VNB,B,9
9,prac,1,0.0,1-Back,1,m,Fri Jan 17 2025 13:27:43 GMT-0500 (Eastern Standard Time),167309.20000076294,005_o_f_h_a.png,I,m,1319,11,3,2252.7000007629395,165056.5,9002,VNB,B,10
10,prac,1,0.0,1-Back,1,m,Fri Jan 17 2025 13:27:43 GMT-0500 (Eastern Standard Time),169176.39999961853,016_y_m_d_a.png,I,m,912,12,3,1858.6999988555908,167317.70000076294,9002,VNB,B,11
0,test,1,0.0,1-Back,,,Fri Jan 17 2025 13:27:43 GMT-0500 (Eastern Standard Time),169176.39999961853,020_y_f_d_a.png,I,space,14355,1,3,1858.6999988555908,167317.70000076294,9002,VNB,B,0
1,test,1,0.0,1-Back,1,m,Fri Jan 17 2025 13:27:43 GMT-0500 (Eastern Standard Time),204759.70000076294,011_m_f_n_a.png,I,m,1093,2,3,2155.300001144409,202604.39999961853,9002,VNB,B,1
2,test,1,0.0,1-Back,1,m,Fri Jan 17 2025 13:27:43 GMT-0500 (Eastern Standard Time),206876.20000076294,004_o_m_h_a.png,I,m,1088,3,3,2106.6000003814697,204769.60000038147,9002,VNB,B,2
3,test,1,1.0,1-Back,1,z,Fri Jan 17 2025 13:27:43 GMT-0500 (Eastern Standard Time),208792.89999961853,007_m_m_h_a.png,I,z,891,4,3,1907.2999992370605,206885.60000038147,9002,VNB,B,3
4,test,1,0.0,1-Back,1,m,Fri Jan 17 2025 13:27:43 GMT-0500 (Eastern Standard Time),210826.29999923706,005_o_f_n_a.png,I,m,1007,5,3,2023.0,208803.29999923706,9002,VNB,B,4
5,test,1,0.0,1-Back,1,m,Fri Jan 17 2025 13:27:43 GMT-0500 (Eastern Standard Time),213459.5,016_y_m_d_a.png,I,m,1597,6,3,2622.2999992370605,210837.20000076294,9002,VNB,B,5
6,test,1,1.0,1-Back,1,z,Fri Jan 17 2025 13:27:43 GMT-0500 (Eastern Standard Time),215626.0,011_m_f_d_a.png,I,z,1140,7,3,2155.7000007629395,213470.29999923706,9002,VNB,B,6
7,test,1,0.0,1-Back,1,m,Fri Jan 17 2025 13:27:43 GMT-0500 (Eastern Standard Time),217876.10000038147,020_y_f_h_a.png,I,m,1129,8,3,2239.0,215637.10000038147,9002,VNB,B,7
8,test,1,0.0,1-Back,1,m,Fri Jan 17 2025 13:27:43 GMT-0500 (Eastern Standard Time),220109.60000038147,004_o_m_n_a.png,I,m,1155,9,3,2222.6000003814697,217887.0,9002,VNB,B,8
9,test,1,0.0,1-Back,1,m,Fri Jan 17 2025 13:27:43 GMT-0500 (Eastern Standard Time),222959.60000038147,016_y_m_h_a.png,I,m,1769,10,3,2839.8999996185303,220119.70000076294,9002,VNB,B,9
10,test,1,0.0,1-Back,1,m,Fri Jan 17 2025 13:27:43 GMT-0500 (Eastern Standard Time),225025.79999923706,004_o_m_d_a.png,I,m,965,11,3,2055.5,222970.29999923706,9002,VNB,B,10
11,test,1,1.0,1-Back,1,z,Fri Jan 17 2025 13:27:43 GMT-0500 (Eastern Standard Time),227159.39999961853,005_o_f_d_a.png,I,z,1109,12,3,2128.2999992370605,225031.10000038147,9002,VNB,B,11
12,test,1,0.0,1-Back,1,m,Fri Jan 17 2025 13:27:43 GMT-0500 (Eastern Standard Time),229242.79999923706,007_m_m_n_a.png,I,m,1056,13,3,2074.0,227168.79999923706,9002,VNB,B,12
13,test,1,1.0,1-Back,1,z,Fri Jan 17 2025 13:27:43 GMT-0500 (Eastern Standard Time),231559.29999923706,020_y_f_n_a.png,I,z,1293,14,3,2305.699998855591,229253.60000038147,9002,VNB,B,13
14,test,1,0.0,1-Back,1,m,Fri Jan 17 2025 13:27:43 GMT-0500 (Eastern Standard Time),233559.39999961853,011_m_f_h_a.png,I,m,977,15,3,1994.8999996185303,231564.5,9002,VNB,B,14
15,test,1,0.0,1-Back,1,m,Fri Jan 17 2025 13:27:43 GMT-0500 (Eastern Standard Time),235992.5,007_m_m_d_a.png,I,m,1341,16,3,2421.6000003814697,233570.89999961853,9002,VNB,B,15
16,test,1,0.0,1-Back,1,m,Fri Jan 17 2025 13:27:43 GMT-0500 (Eastern Standard Time),238659.70000076294,016_y_m_n_a.png,I,m,1647,17,3,2661.900001525879,235997.79999923706,9002,VNB,B,16
17,test,1,0.0,1-Back,1,m,Fri Jan 17 2025 13:27:43 GMT-0500 (Eastern Standard Time),240592.70000076294,005_o_f_h_a.png,I,m,901,18,3,1924.6000003814697,238668.10000038147,9002,VNB,B,17
0,test,2,0.0,1-Back,,,Fri Jan 17 2025 13:27:43 GMT-0500 (Eastern Standard Time),240592.70000076294,016_y_m_n_a.png,I,space,3936,1,3,1924.6000003814697,238668.10000038147,9002,VNB,B,0
1,test,2,0.0,1-Back,1,m,Fri Jan 17 2025 13:27:43 GMT-0500 (Eastern Standard Time),248509.70000076294,020_y_f_h_a.png,I,m,920,2,3,1945.5,246564.20000076294,9002,VNB,B,1
2,test,2,1.0,1-Back,1,m,Fri Jan 17 2025 13:27:43 GMT-0500 (Eastern Standard Time),250592.89999961853,004_o_m_n_a.png,I,m,1051,3,3,2073.2999992370605,248519.60000038147,9002,VNB,B,2
2,test,2,0.0,1-Back,0,m,Fri Jan 17 2025 13:27:43 GMT-0500 (Eastern Standard Time),252725.79999923706,011_m_f_d_a.png,I,z,1111,4,3,2122.0,250603.79999923706,9002,VNB,B,3
3,test,2,0.0,1-Back,1,z,Fri Jan 17 2025 13:27:43 GMT-0500 (Eastern Standard Time),254843.10000038147,007_m_m_d_a.png,I,z,1089,5,3,2109.1000003814697,252734.0,9002,VNB,B,4
4,test,2,0.0,1-Back,1,m,Fri Jan 17 2025 13:27:43 GMT-0500 (Eastern Standard Time),256826.10000038147,016_y_m_h_a.png,I,m,957,6,3,1972.6000003814697,254853.5,9002,VNB,B,5
5,test,2,1.0,1-Back,1,z,Fri Jan 17 2025 13:27:43 GMT-0500 (Eastern Standard Time),258876.0,005_o_f_h_a.png,I,z,1021,7,3,2039.2999992370605,256836.70000076294,9002,VNB,B,6
6,test,2,0.0,1-Back,1,m,Fri Jan 17 2025 13:27:43 GMT-0500 (Eastern Standard Time),261409.60000038147,011_m_f_n_a.png,I,m,1449,8,3,2522.7000007629395,258886.89999961853,9002,VNB,B,7
7,test,2,0.0,1-Back,1,m,Fri Jan 17 2025 13:27:43 GMT-0500 (Eastern Standard Time),263709.60000038147,020_y_f_d_a.png,I,m,1270,9,3,2289.300001144409,261420.29999923706,9002,VNB,B,8
7,test,2,0.0,1-Back,0,m,Fri Jan 17 2025 13:27:43 GMT-0500 (Eastern Standard Time),266793.10000038147,007_m_m_n_a.png,I,None,2014,10,3,3072.0,263721.10000038147,9002,VNB,B,9
8,test,2,1.0,1-Back,1,m,Fri Jan 17 2025 13:27:43 GMT-0500 (Eastern Standard Time),268942.89999961853,011_m_f_h_a.png,I,m,1069,11,3,2139.3999996185303,266803.5,9002,VNB,B,10
9,test,2,0.0,1-Back,1,z,Fri Jan 17 2025 13:27:43 GMT-0500 (Eastern Standard Time),270993.0,004_o_m_h_a.png,I,z,1017,12,3,2039.1000003814697,268953.89999961853,9002,VNB,B,11
10,test,2,0.0,1-Back,1,m,Fri Jan 17 2025 13:27:43 GMT-0500 (Eastern Standard Time),272959.5,016_y_m_d_a.png,I,m,885,13,3,1954.7000007629395,271004.79999923706,9002,VNB,B,12
10,test,2,0.0,1-Back,0,m,Fri Jan 17 2025 13:27:43 GMT-0500 (Eastern Standard Time),275742.89999961853,005_o_f_n_a.png,I,z,1752,14,3,2774.199998855591,272968.70000076294,9002,VNB,B,13
10,test,2,0.0,1-Back,0,z,Fri Jan 17 2025 13:27:43 GMT-0500 (Eastern Standard Time),278009.60000038147,020_y_f_n_a.png,I,m,1241,15,3,2256.6000003814697,275753.0,9002,VNB,B,14
11,test,2,1.0,1-Back,1,m,Fri Jan 17 2025 13:27:43 GMT-0500 (Eastern Standard Time),280226.29999923706,007_m_m_h_a.png,I,m,1132,16,3,2204.8999996185303,278021.39999961853,9002,VNB,B,15
12,test,2,0.0,1-Back,1,m,Fri Jan 17 2025 13:27:43 GMT-0500 (Eastern Standard Time),282325.70000076294,005_o_f_d_a.png,I,m,1010,17,3,2086.5,280239.20000076294,9002,VNB,B,16
13,test,2,1.0,1-Back,1,z,Fri Jan 17 2025 13:27:43 GMT-0500 (Eastern Standard Time),284493.0,004_o_m_d_a.png,I,z,1070,18,3,2157.1000003814697,282335.89999961853,9002,VNB,B,17
0,test,3,1.0,1-Back,,,Fri Jan 17 2025 13:27:43 GMT-0500 (Eastern Standard Time),284493.0,005_o_f_h_a.png,I,space,2148,1,3,2157.1000003814697,282335.89999961853,9002,VNB,B,0
1,test,3,0.0,1-Back,1,m,Fri Jan 17 2025 13:27:43 GMT-0500 (Eastern Standard Time),290909.60000038147,011_m_f_d_a.png,I,m,1054,2,3,2073.3999996185303,288836.20000076294,9002,VNB,B,1
2,test,3,1.0,1-Back,1,m,Fri Jan 17 2025 13:27:43 GMT-0500 (Eastern Standard Time),293309.70000076294,007_m_m_n_a.png,I,m,1320,3,3,2389.6000003814697,290920.10000038147,9002,VNB,B,2
3,test,3,0.0,1-Back,1,z,Fri Jan 17 2025 13:27:43 GMT-0500 (Eastern Standard Time),295392.60000038147,005_o_f_n_a.png,I,z,1049,4,3,2072.2000007629395,293320.39999961853,9002,VNB,B,3
4,test,3,1.0,1-Back,1,m,Fri Jan 17 2025 13:27:43 GMT-0500 (Eastern Standard Time),297392.5,004_o_m_d_a.png,I,m,917,5,3,1990.6000003814697,295401.89999961853,9002,VNB,B,4
5,test,3,0.0,1-Back,1,m,Fri Jan 17 2025 13:27:43 GMT-0500 (Eastern Standard Time),299943.10000038147,020_y_f_h_a.png,I,m,1527,6,3,2543.5,297399.60000038147,9002,VNB,B,5
6,test,3,0.0,1-Back,1,z,Fri Jan 17 2025 13:27:43 GMT-0500 (Eastern Standard Time),302176.10000038147,016_y_m_h_a.png,I,z,1151,7,3,2222.3999996185303,299953.70000076294,9002,VNB,B,6
7,test,3,0.0,1-Back,1,m,Fri Jan 17 2025 13:27:43 GMT-0500 (Eastern Standard Time),304376.20000076294,011_m_f_n_a.png,I,m,1126,8,3,2189.2000007629395,302187.0,9002,VNB,B,7
8,test,3,0.0,1-Back,1,m,Fri Jan 17 2025 13:27:43 GMT-0500 (Eastern Standard Time),306658.89999961853,020_y_f_d_a.png,I,m,1208,9,3,2272.2999992370605,304386.60000038147,9002,VNB,B,8
9,test,3,1.0,1-Back,1,m,Fri Jan 17 2025 13:27:43 GMT-0500 (Eastern Standard Time),309359.20000076294,004_o_m_n_a.png,I,m,1669,10,3,2695.300001144409,306663.89999961853,9002,VNB,B,9
10,test,3,0.0,1-Back,1,m,Fri Jan 17 2025 13:27:43 GMT-0500 (Eastern Standard Time),311342.89999961853,007_m_m_h_a.png,I,m,952,11,3,1974.0,309368.89999961853,9002,VNB,B,10
11,test,3,0.0,1-Back,1,z,Fri Jan 17 2025 13:27:43 GMT-0500 (Eastern Standard Time),313092.60000038147,011_m_f_h_a.png,I,z,680,12,3,1737.8999996185303,311354.70000076294,9002,VNB,B,11
12,test,3,1.0,1-Back,1,m,Fri Jan 17 2025 13:27:43 GMT-0500 (Eastern Standard Time),315060.0,005_o_f_d_a.png,I,m,896,13,3,1956.1000003814697,313103.89999961853,9002,VNB,B,12
13,test,3,0.0,1-Back,1,z,Fri Jan 17 2025 13:27:43 GMT-0500 (Eastern Standard Time),317076.0,007_m_m_d_a.png,I,z,996,14,3,2010.2999992370605,315065.70000076294,9002,VNB,B,13
14,test,3,0.0,1-Back,1,m,Fri Jan 17 2025 13:27:43 GMT-0500 (Eastern Standard Time),319210.10000038147,016_y_m_n_a.png,I,m,1107,15,3,2124.0,317086.10000038147,9002,VNB,B,14
15,test,3,1.0,1-Back,1,m,Fri Jan 17 2025 13:27:43 GMT-0500 (Eastern Standard Time),321426.20000076294,004_o_m_h_a.png,I,m,1182,16,3,2211.2000007629395,319215.0,9002,VNB,B,15
16,test,3,0.0,1-Back,1,m,Fri Jan 17 2025 13:27:43 GMT-0500 (Eastern Standard Time),323509.5,016_y_m_d_a.png,I,m,1062,17,3,2072.6000003814697,321436.89999961853,9002,VNB,B,16
17,test,3,1.0,1-Back,1,m,Fri Jan 17 2025 13:27:43 GMT-0500 (Eastern Standard Time),325859.70000076294,020_y_f_n_a.png,I,m,1280,18,3,2338.0,323521.70000076294,9002,VNB,B,17
0,test,4,1.0,1-Back,,,Fri Jan 17 2025 13:27:43 GMT-0500 (Eastern Standard Time),325859.70000076294,007_m_m_d_a.png,I,space,2637,1,3,2338.0,323521.70000076294,9002,VNB,B,0
0,test,4,0.0,1-Back,0,z,Fri Jan 17 2025 13:27:43 GMT-0500 (Eastern Standard Time),332642.5,004_o_m_d_a.png,I,m,932,2,3,1955.2999992370605,330687.20000076294,9002,VNB,B,1
1,test,4,0.0,1-Back,1,m,Fri Jan 17 2025 13:27:43 GMT-0500 (Eastern Standard Time),334643.0,016_y_m_h_a.png,I,m,964,3,3,1995.3999996185303,332647.60000038147,9002,VNB,B,2
2,test,4,0.0,1-Back,1,m,Fri Jan 17 2025 13:27:43 GMT-0500 (Eastern Standard Time),336493.0,011_m_f_n_a.png,I,m,820,4,3,1839.1000003814697,334653.89999961853,9002,VNB,B,3
3,test,4,1.0,1-Back,1,m,Fri Jan 17 2025 13:27:43 GMT-0500 (Eastern Standard Time),338758.89999961853,005_o_f_h_a.png,I,m,1243,5,3,2254.6000003814697,336504.29999923706,9002,VNB,B,4
4,test,4,0.0,1-Back,1,m,Fri Jan 17 2025 13:27:43 GMT-0500 (Eastern Standard Time),340692.89999961853,007_m_m_n_a.png,I,m,912,6,3,1929.3999996185303,338763.5,9002,VNB,B,5
5,test,4,0.0,1-Back,1,m,Fri Jan 17 2025 13:27:43 GMT-0500 (Eastern Standard Time),343077.20000076294,016_y_m_d_a.png,I,m,1313,7,3,2373.1000003814697,340704.10000038147,9002,VNB,B,6
6,test,4,1.0,1-Back,1,z,Fri Jan 17 2025 13:27:43 GMT-0500 (Eastern Standard Time),345376.39999961853,020_y_f_d_a.png,I,z,1167,8,3,2279.8999996185303,343096.5,9002,VNB,B,7
7,test,4,0.0,1-Back,1,m,Fri Jan 17 2025 13:27:43 GMT-0500 (Eastern Standard Time),347460.10000038147,011_m_f_h_a.png,I,m,1014,9,3,2072.2000007629395,345387.89999961853,9002,VNB,B,8
8,test,4,0.0,1-Back,1,z,Fri Jan 17 2025 13:27:43 GMT-0500 (Eastern Standard Time),349475.89999961853,004_o_m_h_a.png,I,z,946,10,3,1952.1999988555908,347523.70000076294,9002,VNB,B,9
9,test,4,1.0,1-Back,1,m,Fri Jan 17 2025 13:27:43 GMT-0500 (Eastern Standard Time),351492.5,005_o_f_n_a.png,I,m,995,11,3,2004.3999996185303,349488.10000038147,9002,VNB,B,10
10,test,4,0.0,1-Back,1,m,Fri Jan 17 2025 13:27:43 GMT-0500 (Eastern Standard Time),354193.10000038147,011_m_f_d_a.png,I,m,1667,12,3,2694.8999996185303,351498.20000076294,9002,VNB,B,11
11,test,4,0.0,1-Back,1,m,Fri Jan 17 2025 13:27:43 GMT-0500 (Eastern Standard Time),356309.5,020_y_f_n_a.png,I,m,1096,13,3,2103.2000007629395,354206.29999923706,9002,VNB,B,12
12,test,4,0.0,1-Back,1,m,Fri Jan 17 2025 13:27:43 GMT-0500 (Eastern Standard Time),358476.20000076294,005_o_f_d_a.png,I,m,1138,14,3,2157.400001525879,356318.79999923706,9002,VNB,B,13
13,test,4,0.0,1-Back,1,m,Fri Jan 17 2025 13:27:43 GMT-0500 (Eastern Standard Time),360509.70000076294,020_y_f_h_a.png,I,m,955,15,3,2022.2000007629395,358487.5,9002,VNB,B,14
14,test,4,1.0,1-Back,1,z,Fri Jan 17 2025 13:27:43 GMT-0500 (Eastern Standard Time),362759.70000076294,007_m_m_h_a.png,I,z,1160,16,3,2238.400001525879,360521.29999923706,9002,VNB,B,15
15,test,4,0.0,1-Back,1,m,Fri Jan 17 2025 13:27:43 GMT-0500 (Eastern Standard Time),364926.29999923706,004_o_m_n_a.png,I,m,1086,17,3,2155.699998855591,362770.60000038147,9002,VNB,B,16
16,test,4,1.0,1-Back,1,z,Fri Jan 17 2025 13:27:43 GMT-0500 (Eastern Standard Time),367059.29999923706,016_y_m_n_a.png,I,z,1113,18,3,2124.0,364935.29999923706,9002,VNB,B,17
0,test,5,1.0,1-Back,,,Fri Jan 17 2025 13:27:43 GMT-0500 (Eastern Standard Time),367059.29999923706,004_o_m_n_a.png,I,space,3462,1,3,2124.0,364935.29999923706,9002,VNB,B,0
1,test,5,1.0,1-Back,1,m,Fri Jan 17 2025 13:27:43 GMT-0500 (Eastern Standard Time),375243.20000076294,005_o_f_h_a.png,I,m,1673,2,3,2688.5,372554.70000076294,9002,VNB,B,1
2,test,5,0.0,1-Back,1,m,Fri Jan 17 2025 13:27:43 GMT-0500 (Eastern Standard Time),377142.70000076294,016_y_m_d_a.png,I,m,877,3,3,1888.2000007629395,375254.5,9002,VNB,B,2
3,test,5,0.0,1-Back,1,z,Fri Jan 17 2025 13:27:43 GMT-0500 (Eastern Standard Time),379376.39999961853,004_o_m_d_a.png,I,z,1201,4,3,2226.3999996185303,377150.0,9002,VNB,B,3
4,test,5,0.0,1-Back,1,m,Fri Jan 17 2025 13:27:43 GMT-0500 (Eastern Standard Time),381276.0,011_m_f_h_a.png,I,m,871,5,3,1891.6000003814697,379384.39999961853,9002,VNB,B,4
5,test,5,0.0,1-Back,1,m,Fri Jan 17 2025 13:27:43 GMT-0500 (Eastern Standard Time),383243.10000038147,020_y_f_n_a.png,I,m,940,6,3,1958.8000011444092,381284.29999923706,9002,VNB,B,5
6,test,5,1.0,1-Back,1,z,Fri Jan 17 2025 13:27:43 GMT-0500 (Eastern Standard Time),385459.70000076294,005_o_f_n_a.png,I,z,1181,7,3,2206.7000007629395,383253.0,9002,VNB,B,6
7,test,5,0.0,1-Back,1,m,Fri Jan 17 2025 13:27:43 GMT-0500 (Eastern Standard Time),387492.89999961853,011_m_f_d_a.png,I,m,1012,8,3,2023.5,385469.39999961853,9002,VNB,B,7
8,test,5,0.0,1-Back,1,m,Fri Jan 17 2025 13:27:43 GMT-0500 (Eastern Standard Time),389609.5,016_y_m_h_a.png,I,m,1091,9,3,2106.0,387503.5,9002,VNB,B,8
9,test,5,0.0,1-Back,1,m,Fri Jan 17 2025 13:27:43 GMT-0500 (Eastern Standard Time),391842.89999961853,020_y_f_d_a.png,I,m,1199,10,3,2221.0,389621.89999961853,9002,VNB,B,9
10,test,5,0.0,1-Back,1,m,Fri Jan 17 2025 13:27:43 GMT-0500 (Eastern Standard Time),393993.10000038147,007_m_m_n_a.png,I,m,1125,11,3,2140.300001144409,391852.79999923706,9002,VNB,B,10
11,test,5,1.0,1-Back,1,z,Fri Jan 17 2025 13:27:43 GMT-0500 (Eastern Standard Time),395943.10000038147,011_m_f_n_a.png,I,z,927,12,3,1940.6000003814697,394002.5,9002,VNB,B,11
12,test,5,0.0,1-Back,1,m,Fri Jan 17 2025 13:27:43 GMT-0500 (Eastern Standard Time),397892.79999923706,004_o_m_h_a.png,I,m,880,13,3,1938.6999988555908,395954.10000038147,9002,VNB,B,12
13,test,5,0.0,1-Back,1,z,Fri Jan 17 2025 13:27:43 GMT-0500 (Eastern Standard Time),399842.70000076294,007_m_m_h_a.png,I,z,865,14,3,1937.6000003814697,397905.10000038147,9002,VNB,B,13
14,test,5,1.0,1-Back,1,m,Fri Jan 17 2025 13:27:43 GMT-0500 (Eastern Standard Time),401759.79999923706,005_o_f_d_a.png,I,m,885,15,3,1910.7999992370605,399849.0,9002,VNB,B,14
15,test,5,0.0,1-Back,1,m,Fri Jan 17 2025 13:27:43 GMT-0500 (Eastern Standard Time),403876.0,016_y_m_n_a.png,I,m,1096,16,3,2105.2000007629395,401770.79999923706,9002,VNB,B,15
16,test,5,0.0,1-Back,1,m,Fri Jan 17 2025 13:27:43 GMT-0500 (Eastern Standard Time),405926.20000076294,020_y_f_h_a.png,I,m,978,17,3,2041.400001525879,403884.79999923706,9002,VNB,B,16
17,test,5,0.0,1-Back,1,m,Fri Jan 17 2025 13:27:43 GMT-0500 (Eastern Standard Time),407809.70000076294,007_m_m_d_a.png,I,m,849,18,3,1874.0,405935.70000076294,9002,VNB,B,17
0,prac,1,0.0,2-Back,,,Fri Jan 17 2025 13:27:43 GMT-0500 (Eastern Standard Time),407809.70000076294,011_m_f_n_a.png,I,space,8369,1,3,1874.0,405935.70000076294,9002,VNB,B,0
0,prac,1,0.0,2-Back,,,Fri Jan 17 2025 13:27:43 GMT-0500 (Eastern Standard Time),407809.70000076294,005_o_f_h_a.png,I,space,8369,2,3,1874.0,405935.70000076294,9002,VNB,B,0
1,prac,1,0.0,2-Back,1,m,Fri Jan 17 2025 13:27:43 GMT-0500 (Eastern Standard Time),514160.10000038147,004_o_m_d_a.png,I,m,1517,3,3,2487.3999996185303,511672.70000076294,9002,VNB,B,1
2,prac,1,1.0,2-Back,1,z,Fri Jan 17 2025 13:27:43 GMT-0500 (Eastern Standard Time),516160.0,007_m_m_h_a.png,I,z,912,4,3,1985.8999996185303,514174.10000038147,9002,VNB,B,2
2,prac,1,0.0,2-Back,0,m,Fri Jan 17 2025 13:27:43 GMT-0500 (Eastern Standard Time),519160.0,020_y_f_n_a.png,I,None,2011,5,3,2984.8999996185303,516175.10000038147,9002,VNB,B,3
2,prac,1,1.0,2-Back,0,z,Fri Jan 17 2025 13:27:43 GMT-0500 (Eastern Standard Time),522309.5,004_o_m_h_a.png,I,None,2008,6,3,3136.0,519173.5,9002,VNB,B,4
2,prac,1,1.0,2-Back,0,z,Fri Jan 17 2025 13:27:43 GMT-0500 (Eastern Standard Time),525576.3999996185,016_y_m_n_a.png,I,None,2011,7,3,3258.5,522317.89999961853,9002,VNB,B,5
2,prac,1,0.0,2-Back,0,m,Fri Jan 17 2025 13:27:43 GMT-0500 (Eastern Standard Time),528660.1000003815,011_m_f_d_a.png,I,None,2015,8,3,3069.2000007629395,525590.8999996185,9002,VNB,B,6
3,prac,1,0.0,2-Back,1,m,Fri Jan 17 2025 13:27:43 GMT-0500 (Eastern Standard Time),530943.5,005_o_f_d_a.png,I,m,1067,9,3,2266.7000007629395,528676.7999992371,9002,VNB,B,7
3,prac,1,0.0,2-Back,0,m,Fri Jan 17 2025 13:27:43 GMT-0500 (Eastern Standard Time),533976.2999992371,007_m_m_h_a.png,I,None,2003,10,3,3019.199998855591,530957.1000003815,9002,VNB,B,8
3,prac,1,1.0,2-Back,0,z,Fri Jan 17 2025 13:27:43 GMT-0500 (Eastern Standard Time),536376.6000003815,020_y_f_d_a.png,I,m,1342,11,3,2385.2000007629395,533991.3999996185,9002,VNB,B,9
4,prac,1,0.0,2-Back,1,m,Fri Jan 17 2025 13:27:43 GMT-0500 (Eastern Standard Time),538659.7000007629,004_o_m_n_a.png,I,m,1309,12,3,2269.5,536390.2000007629,9002,VNB,B,10
0,prac,2,0.0,2-Back,,,Fri Jan 17 2025 13:27:43 GMT-0500 (Eastern Standard Time),538659.7000007629,011_m_f_n_a.png,I,a,10853,1,3,2269.5,536390.2000007629,9002,VNB,B,0
0,prac,2,0.0,2-Back,,,Fri Jan 17 2025 13:27:43 GMT-0500 (Eastern Standard Time),538659.7000007629,005_o_f_h_a.png,I,a,10853,2,3,2269.5,536390.2000007629,9002,VNB,B,0
1,prac,2,0.0,2-Back,1,m,Fri Jan 17 2025 13:27:43 GMT-0500 (Eastern Standard Time),557460.0,004_o_m_d_a.png,I,m,1219,3,3,2172.3999996185303,555287.6000003815,9002,VNB,B,1
2,prac,2,1.0,2-Back,1,z,Fri Jan 17 2025 13:27:43 GMT-0500 (Eastern Standard Time),560109.7000007629,007_m_m_h_a.png,I,z,1559,4,3,2637.7000007629395,557472.0,9002,VNB,B,2
2,prac,2,0.0,2-Back,0,m,Fri Jan 17 2025 13:27:43 GMT-0500 (Eastern Standard Time),562192.7999992371,020_y_f_n_a.png,I,z,1078,5,3,2071.2999992370605,560121.5,9002,VNB,B,3
2,prac,2,1.0,2-Back,0,z,Fri Jan 17 2025 13:27:43 GMT-0500 (Eastern Standard Time),564209.8999996185,004_o_m_h_a.png,I,m,1044,6,3,2009.7999992370605,562200.1000003815,9002,VNB,B,4
3,prac,2,1.0,2-Back,1,z,Fri Jan 17 2025 13:27:43 GMT-0500 (Eastern Standard Time),566359.8999996185,016_y_m_n_a.png,I,z,1036,7,3,2137.699998855591,564222.2000007629,9002,VNB,B,5
3,prac,2,0.0,2-Back,0,m,Fri Jan 17 2025 13:27:43 GMT-0500 (Eastern Standard Time),568576.6000003815,011_m_f_d_a.png,I,z,1156,8,3,2188.300001144409,566388.2999992371,9002,VNB,B,6
4,prac,2,0.0,2-Back,1,m,Fri Jan 17 2025 13:27:43 GMT-0500 (Eastern Standard Time),570526.3999996185,005_o_f_d_a.png,I,m,928,9,3,1937.6000003814697,568588.7999992371,9002,VNB,B,7
5,prac,2,0.0,2-Back,1,m,Fri Jan 17 2025 13:27:43 GMT-0500 (Eastern Standard Time),572443.5,007_m_m_h_a.png,I,m,945,10,3,1905.2999992370605,570538.2000007629,9002,VNB,B,8
5,prac,2,1.0,2-Back,0,z,Fri Jan 17 2025 13:27:43 GMT-0500 (Eastern Standard Time),574476.3999996185,020_y_f_d_a.png,I,m,1051,11,3,2019.8999996185303,572456.5,9002,VNB,B,9
6,prac,2,0.0,2-Back,1,m,Fri Jan 17 2025 13:27:43 GMT-0500 (Eastern Standard Time),576826.7000007629,004_o_m_n_a.png,I,m,1378,12,3,2329.7000007629395,574497.0,9002,VNB,B,10
0,test,1,0.0,2-Back,,,Fri Jan 17 2025 13:27:43 GMT-0500 (Eastern Standard Time),576826.7000007629,016_y_m_h_a.png,I,space,9685,1,3,2329.7000007629395,574497.0,9002,VNB,B,0
0,test,1,0.0,2-Back,,,Fri Jan 17 2025 13:27:43 GMT-0500 (Eastern Standard Time),576826.7000007629,005_o_f_n_a.png,I,space,9685,2,3,2329.7000007629395,574497.0,9002,VNB,B,0
1,test,1,0.0,2-Back,1,z,Fri Jan 17 2025 13:27:43 GMT-0500 (Eastern Standard Time),622843.5,004_o_m_h_a.png,I,z,740,3,3,1822.2999992370605,621021.2000007629,9002,VNB,B,1
2,test,1,0.0,2-Back,1,m,Fri Jan 17 2025 13:27:43 GMT-0500 (Eastern Standard Time),624742.8999996185,011_m_f_d_a.png,I,m,876,4,3,1890.6999988555908,622852.2000007629,9002,VNB,B,2
2,test,1,1.0,2-Back,0,m,Fri Jan 17 2025 13:27:43 GMT-0500 (Eastern Standard Time),627093.2999992371,016_y_m_n_a.png,I,z,1329,5,3,2345.199998855591,624748.1000003815,9002,VNB,B,3
3,test,1,0.0,2-Back,1,z,Fri Jan 17 2025 13:27:43 GMT-0500 (Eastern Standard Time),629310.0,020_y_f_d_a.png,I,z,1136,6,3,2205.6000003814697,627104.3999996185,9002,VNB,B,4
4,test,1,0.0,2-Back,1,m,Fri Jan 17 2025 13:27:43 GMT-0500 (Eastern Standard Time),631593.3999996185,007_m_m_h_a.png,I,m,1209,7,3,2272.3999996185303,629321.0,9002,VNB,B,5
4,test,1,1.0,2-Back,0,m,Fri Jan 17 2025 13:27:43 GMT-0500 (Eastern Standard Time),634476.5,020_y_f_n_a.png,I,z,1855,8,3,2872.5,631604.0,9002,VNB,B,6
5,test,1,0.0,2-Back,1,z,Fri Jan 17 2025 13:27:43 GMT-0500 (Eastern Standard Time),636576.6000003815,005_o_f_h_a.png,I,z,1068,9,3,2088.1000003814697,634488.5,9002,VNB,B,7
6,test,1,0.0,2-Back,1,m,Fri Jan 17 2025 13:27:43 GMT-0500 (Eastern Standard Time),638626.7000007629,004_o_m_d_a.png,I,m,1015,10,3,2039.8000011444092,636586.8999996185,9002,VNB,B,8
7,test,1,1.0,2-Back,1,m,Fri Jan 17 2025 13:27:43 GMT-0500 (Eastern Standard Time),641560.1000003815,007_m_m_d_a.png,I,m,1912,11,3,2922.6000003814697,638637.5,9002,VNB,B,9
7,test,1,0.0,2-Back,0,m,Fri Jan 17 2025 13:27:43 GMT-0500 (Eastern Standard Time),643792.5,011_m_f_n_a.png,I,z,1202,12,3,2218.8999996185303,641573.6000003815,9002,VNB,B,10
8,test,1,0.0,2-Back,1,m,Fri Jan 17 2025 13:27:43 GMT-0500 (Eastern Standard Time),646260.0,020_y_f_h_a.png,I,m,1447,13,3,2462.5,643797.5,9002,VNB,B,11
9,test,1,0.0,2-Back,1,z,Fri Jan 17 2025 13:27:43 GMT-0500 (Eastern Standard Time),648576.7000007629,007_m_m_n_a.png,I,z,1235,14,3,2305.800001144409,646270.8999996185,9002,VNB,B,12
10,test,1,0.0,2-Back,1,m,Fri Jan 17 2025 13:27:43 GMT-0500 (Eastern Standard Time),651143.0,016_y_m_d_a.png,I,m,1493,15,3,2555.6000003814697,648587.3999996185,9002,VNB,B,13
10,test,1,1.0,2-Back,0,m,Fri Jan 17 2025 13:27:43 GMT-0500 (Eastern Standard Time),653510.0,011_m_f_h_a.png,I,z,1346,16,3,2358.2999992370605,651151.7000007629,9002,VNB,B,14
11,test,1,0.0,2-Back,1,z,Fri Jan 17 2025 13:27:43 GMT-0500 (Eastern Standard Time),656426.6000003815,005_o_f_d_a.png,I,z,1840,17,3,2904.800001144409,653521.7999992371,9002,VNB,B,15
11,test,1,0.0,2-Back,0,m,Fri Jan 17 2025 13:27:43 GMT-0500 (Eastern Standard Time),659510.0,004_o_m_n_a.png,I,None,2014,18,3,3073.1000003814697,656436.8999996185,9002,VNB,B,16
0,test,2,0.0,2-Back,,,Fri Jan 17 2025 13:27:43 GMT-0500 (Eastern Standard Time),659510.0,007_m_m_h_a.png,I,space,2892,1,3,3073.1000003814697,656436.8999996185,9002,VNB,B,0
0,test,2,0.0,2-Back,,,Fri Jan 17 2025 13:27:43 GMT-0500 (Eastern Standard Time),659510.0,020_y_f_n_a.png,I,space,2892,2,3,3073.1000003814697,656436.8999996185,9002,VNB,B,0
1,test,2,1.0,2-Back,1,z,Fri Jan 17 2025 13:27:43 GMT-0500 (Eastern Standard Time),669860.1000003815,005_o_f_h_a.png,I,z,1081,3,3,2107.300001144409,667752.7999992371,9002,VNB,B,1
2,test,2,0.0,2-Back,1,m,Fri Jan 17 2025 13:27:43 GMT-0500 (Eastern Standard Time),672659.8999996185,004_o_m_d_a.png,I,m,1765,4,3,2788.8999996185303,669871.0,9002,VNB,B,2
3,test,2,0.0,2-Back,1,m,Fri Jan 17 2025 13:27:43 GMT-0500 (Eastern Standard Time),674943.3999996185,011_m_f_d_a.png,I,m,1235,5,3,2263.7999992370605,672679.6000003815,9002,VNB,B,3
4,test,2,0.0,2-Back,1,m,Fri Jan 17 2025 13:27:43 GMT-0500 (Eastern Standard Time),677843.2999992371,016_y_m_h_a.png,I,m,1798,6,3,2887.599998474121,674955.7000007629,9002,VNB,B,4
4,test,2,0.0,2-Back,0,m,Fri Jan 17 2025 13:27:43 GMT-0500 (Eastern Standard Time),680926.3999996185,005_o_f_n_a.png,I,None,2013,7,3,3071.3999996185303,677855.0,9002,VNB,B,5
5,test,2,1.0,2-Back,1,z,Fri Jan 17 2025 13:27:43 GMT-0500 (Eastern Standard Time),683293.5,004_o_m_h_a.png,I,z,1338,8,3,2361.2000007629395,680932.2999992371,9002,VNB,B,6
5,test,2,0.0,2-Back,0,m,Fri Jan 17 2025 13:27:43 GMT-0500 (Eastern Standard Time),686242.8999996185,020_y_f_d_a.png,I,z,1865,9,3,2938.7999992370605,683304.1000003815,9002,VNB,B,7
6,test,2,0.0,2-Back,1,m,Fri Jan 17 2025 13:27:43 GMT-0500 (Eastern Standard Time),688693.2999992371,016_y_m_d_a.png,I,m,1379,10,3,2439.8999996185303,686253.3999996185,9002,VNB,B,8
7,test,2,0.0,2-Back,1,m,Fri Jan 17 2025 13:27:43 GMT-0500 (Eastern Standard Time),691593.3999996185,007_m_m_n_a.png,I,m,1825,11,3,2888.699998855591,688704.7000007629,9002,VNB,B,9
7,test,2,0.0,2-Back,0,m,Fri Jan 17 2025 13:27:43 GMT-0500 (Eastern Standard Time),693876.7000007629,011_m_f_h_a.png,I,z,1213,12,3,2271.800001144409,691604.8999996185,9002,VNB,B,10
8,test,2,1.0,2-Back,1,z,Fri Jan 17 2025 13:27:43 GMT-0500 (Eastern Standard Time),696460.2000007629,004_o_m_n_a.png,I,z,1506,13,3,2572.800001144409,693887.3999996185,9002,VNB,B,11
8,test,2,0.0,2-Back,0,m,Fri Jan 17 2025 13:27:43 GMT-0500 (Eastern Standard Time),699093.2000007629,005_o_f_d_a.png,I,z,1613,14,3,2623.400001525879,696469.7999992371,9002,VNB,B,12
9,test,2,0.0,2-Back,1,m,Fri Jan 17 2025 13:27:43 GMT-0500 (Eastern Standard Time),701460.0,020_y_f_h_a.png,I,m,1215,15,3,2355.1000003814697,699104.8999996185,9002,VNB,B,13
10,test,2,0.0,2-Back,1,z,Fri Jan 17 2025 13:27:43 GMT-0500 (Eastern Standard Time),703409.8999996185,007_m_m_d_a.png,I,z,917,16,3,1938.5,701471.3999996185,9002,VNB,B,14
11,test,2,0.0,2-Back,1,m,Fri Jan 17 2025 13:27:43 GMT-0500 (Eastern Standard Time),706426.7000007629,016_y_m_n_a.png,I,m,1940,17,3,3006.2000007629395,703420.5,9002,VNB,B,15
12,test,2,1.0,2-Back,1,m,Fri Jan 17 2025 13:27:43 GMT-0500 (Eastern Standard Time),709193.2000007629,011_m_f_n_a.png,I,m,1691,18,3,2749.7000007629395,706443.5,9002,VNB,B,16
0,test,3,1.0,2-Back,,,Fri Jan 17 2025 13:27:43 GMT-0500 (Eastern Standard Time),709193.2000007629,004_o_m_n_a.png,I,space,3801,1,3,2749.7000007629395,706443.5,9002,VNB,B,0
0,test,3,1.0,2-Back,,,Fri Jan 17 2025 13:27:43 GMT-0500 (Eastern Standard Time),709193.2000007629,005_o_f_d_a.png,I,space,3801,2,3,2749.7000007629395,706443.5,9002,VNB,B,0
1,test,3,0.0,2-Back,1,m,Fri Jan 17 2025 13:27:43 GMT-0500 (Eastern Standard Time),720576.8999996185,020_y_f_h_a.png,I,m,1451,3,3,2473.3999996185303,718103.5,9002,VNB,B,1
2,test,3,0.0,2-Back,1,z,Fri Jan 17 2025 13:27:43 GMT-0500 (Eastern Standard Time),723043.2999992371,011_m_f_d_a.png,I,z,1431,4,3,2454.199998855591,720589.1000003815,9002,VNB,B,2
3,test,3,1.0,2-Back,1,m,Fri Jan 17 2025 13:27:43 GMT-0500 (Eastern Standard Time),725760.0,016_y_m_n_a.png,I,m,1685,5,3,2707.2000007629395,723052.7999992371,9002,VNB,B,3
3,test,3,0.0,2-Back,0,m,Fri Jan 17 2025 13:27:43 GMT-0500 (Eastern Standard Time),728210.0,004_o_m_h_a.png,I,z,1417,6,3,2438.0,725772.0,9002,VNB,B,4
4,test,3,0.0,2-Back,1,z,Fri Jan 17 2025 13:27:43 GMT-0500 (Eastern Standard Time),730760.1000003815,020_y_f_n_a.png,I,z,1527,7,3,2538.800001144409,728221.2999992371,9002,VNB,B,5
4,test,3,1.0,2-Back,0,m,Fri Jan 17 2025 13:27:43 GMT-0500 (Eastern Standard Time),733793.2000007629,007_m_m_d_a.png,I,None,2014,8,3,3024.0,730769.2000007629,9002,VNB,B,6
5,test,3,0.0,2-Back,1,m,Fri Jan 17 2025 13:27:43 GMT-0500 (Eastern Standard Time),735859.8999996185,016_y_m_d_a.png,I,m,1032,9,3,2060.1000003814697,733799.7999992371,9002,VNB,B,7
6,test,3,0.0,2-Back,1,m,Fri Jan 17 2025 13:27:43 GMT-0500 (Eastern Standard Time),738360.2000007629,005_o_f_h_a.png,I,m,1477,10,3,2493.7000007629395,735866.5,9002,VNB,B,8
7,test,3,1.0,2-Back,1,m,Fri Jan 17 2025 13:27:43 GMT-0500 (Eastern Standard Time),740943.5,011_m_f_n_a.png,I,m,1552,11,3,2573.5,738370.0,9002,VNB,B,9
7,test,3,1.0,2-Back,0,z,Fri Jan 17 2025 13:27:43 GMT-0500 (Eastern Standard Time),744026.7000007629,007_m_m_h_a.png,I,None,2015,12,3,3070.7000007629395,740956.0,9002,VNB,B,10
7,test,3,0.0,2-Back,0,m,Fri Jan 17 2025 13:27:43 GMT-0500 (Eastern Standard Time),746410.0,020_y_f_d_a.png,I,z,1291,13,3,2369.5,744040.5,9002,VNB,B,11
8,test,3,0.0,2-Back,1,m,Fri Jan 17 2025 13:27:43 GMT-0500 (Eastern Standard Time),748276.2999992371,005_o_f_n_a.png,I,m,847,14,3,1857.599998474121,746418.7000007629,9002,VNB,B,12
8,test,3,0.0,2-Back,0,z,Fri Jan 17 2025 13:27:43 GMT-0500 (Eastern Standard Time),750660.0,004_o_m_d_a.png,I,m,1357,15,3,2374.7000007629395,748285.2999992371,9002,VNB,B,13
9,test,3,1.0,2-Back,1,m,Fri Jan 17 2025 13:27:43 GMT-0500 (Eastern Standard Time),753459.8999996185,011_m_f_h_a.png,I,m,1765,16,3,2788.6000003814697,750671.2999992371,9002,VNB,B,14
10,test,3,0.0,2-Back,1,m,Fri Jan 17 2025 13:27:43 GMT-0500 (Eastern Standard Time),755776.7000007629,007_m_m_n_a.png,I,m,1235,17,3,2304.0,753472.7000007629,9002,VNB,B,15
11,test,3,0.0,2-Back,1,z,Fri Jan 17 2025 13:27:43 GMT-0500 (Eastern Standard Time),758176.5,016_y_m_h_a.png,I,z,1317,18,3,2388.2999992370605,755788.2000007629,9002,VNB,B,16
0,test,4,0.0,2-Back,,,Fri Jan 17 2025 13:27:43 GMT-0500 (Eastern Standard Time),758176.5,011_m_f_n_a.png,I,space,3362,1,3,2388.2999992370605,755788.2000007629,9002,VNB,B,0
0,test,4,0.0,2-Back,,,Fri Jan 17 2025 13:27:43 GMT-0500 (Eastern Standard Time),758176.5,004_o_m_n_a.png,I,space,3362,2,3,2388.2999992370605,755788.2000007629,9002,VNB,B,0
1,test,4,1.0,2-Back,1,m,Fri Jan 17 2025 13:27:43 GMT-0500 (Eastern Standard Time),769243.6000003815,016_y_m_h_a.png,I,m,1357,3,3,2378.7000007629395,766864.8999996185,9002,VNB,B,1
1,test,4,1.0,2-Back,0,m,Fri Jan 17 2025 13:27:43 GMT-0500 (Eastern Standard Time),771643.6000003815,005_o_f_d_a.png,I,z,1373,4,3,2389.800001144409,769253.7999992371,9002,VNB,B,2
1,test,4,0.0,2-Back,0,z,Fri Jan 17 2025 13:27:43 GMT-0500 (Eastern Standard Time),774526.6000003815,004_o_m_h_a.png,I,m,1853,5,3,2871.300001144409,771655.2999992371,9002,VNB,B,3
1,test,4,0.0,2-Back,0,m,Fri Jan 17 2025 13:27:43 GMT-0500 (Eastern Standard Time),776976.6000003815,007_m_m_n_a.png,I,z,1419,6,3,2438.3999996185303,774538.2000007629,9002,VNB,B,4
1,test,4,0.0,2-Back,0,m,Fri Jan 17 2025 13:27:43 GMT-0500 (Eastern Standard Time),780060.2000007629,011_m_f_d_a.png,I,None,2014,7,3,3071.300001144409,776988.8999996185,9002,VNB,B,5
2,test,4,0.0,2-Back,1,z,Fri Jan 17 2025 13:27:43 GMT-0500 (Eastern Standard Time),782393.2000007629,020_y_f_n_a.png,I,z,1258,8,3,2316.1000003814697,780077.1000003815,9002,VNB,B,6
2,test,4,1.0,2-Back,0,m,Fri Jan 17 2025 13:27:43 GMT-0500 (Eastern Standard Time),784710.1000003815,005_o_f_h_a.png,I,z,1297,9,3,2309.6000003814697,782400.5,9002,VNB,B,7
3,test,4,0.0,2-Back,1,m,Fri Jan 17 2025 13:27:43 GMT-0500 (Eastern Standard Time),786843.7000007629,007_m_m_h_a.png,I,m,1107,10,3,2124.300001144409,784719.3999996185,9002,VNB,B,8
4,test,4,0.0,2-Back,1,m,Fri Jan 17 2025 13:27:43 GMT-0500 (Eastern Standard Time),789693.6000003815,020_y_f_d_a.png,I,m,1821,11,3,2840.3999996185303,786853.2000007629,9002,VNB,B,9
5,test,4,0.0,2-Back,1,m,Fri Jan 17 2025 13:27:43 GMT-0500 (Eastern Standard Time),791976.7000007629,016_y_m_n_a.png,I,m,1259,12,3,2272.800001144409,789703.8999996185,9002,VNB,B,10
5,test,4,0.0,2-Back,0,z,Fri Jan 17 2025 13:27:43 GMT-0500 (Eastern Standard Time),794743.2000007629,004_o_m_d_a.png,I,m,1694,13,3,2756.2000007629395,791987.0,9002,VNB,B,11
6,test,4,1.0,2-Back,1,m,Fri Jan 17 2025 13:27:43 GMT-0500 (Eastern Standard Time),797226.7999992371,011_m_f_h_a.png,I,m,1457,14,3,2478.699998855591,794748.1000003815,9002,VNB,B,12
7,test,4,1.0,2-Back,1,m,Fri Jan 17 2025 13:27:43 GMT-0500 (Eastern Standard Time),799810.2000007629,020_y_f_h_a.png,I,m,1500,15,3,2572.300001144409,797237.8999996185,9002,VNB,B,13
7,test,4,0.0,2-Back,0,m,Fri Jan 17 2025 13:27:43 GMT-0500 (Eastern Standard Time),802910.3999996185,005_o_f_n_a.png,I,None,2014,16,3,3086.1000003814697,799824.2999992371,9002,VNB,B,14
8,test,4,0.0,2-Back,1,m,Fri Jan 17 2025 13:27:43 GMT-0500 (Eastern Standard Time),804860.0,016_y_m_d_a.png,I,m,872,17,3,1939.1000003814697,802920.8999996185,9002,VNB,B,15
9,test,4,1.0,2-Back,1,m,Fri Jan 17 2025 13:27:43 GMT-0500 (Eastern Standard Time),807143.2000007629,007_m_m_d_a.png,I,m,1211,18,3,2273.0,804870.2000007629,9002,VNB,B,16
0,test,5,1.0,2-Back,,,Fri Jan 17 2025 13:27:43 GMT-0500 (Eastern Standard Time),807143.2000007629,020_y_f_d_a.png,I,space,3538,1,3,2273.0,804870.2000007629,9002,VNB,B,0
0,test,5,1.0,2-Back,,,Fri Jan 17 2025 13:27:43 GMT-0500 (Eastern Standard Time),807143.2000007629,005_o_f_h_a.png,I,space,3538,2,3,2273.0,804870.2000007629,9002,VNB,B,0
1,test,5,1.0,2-Back,1,z,Fri Jan 17 2025 13:27:43 GMT-0500 (Eastern Standard Time),818476.8999996185,004_o_m_d_a.png,I,z,1407,3,3,2425.1000003814697,816051.7999992371,9002,VNB,B,1
2,test,5,1.0,2-Back,1,m,Fri Jan 17 2025 13:27:43 GMT-0500 (Eastern Standard Time),820709.8999996185,011_m_f_n_a.png,I,m,1211,4,3,2221.3999996185303,818488.5,9002,VNB,B,2
2,test,5,0.0,2-Back,0,m,Fri Jan 17 2025 13:27:43 GMT-0500 (Eastern Standard Time),823510.1000003815,007_m_m_h_a.png,I,z,1775,5,3,2790.2000007629395,820719.8999996185,9002,VNB,B,3
3,test,5,0.0,2-Back,1,z,Fri Jan 17 2025 13:27:43 GMT-0500 (Eastern Standard Time),826276.6000003815,020_y_f_n_a.png,I,z,1696,6,3,2755.0,823521.6000003815,9002,VNB,B,4
4,test,5,0.0,2-Back,1,m,Fri Jan 17 2025 13:27:43 GMT-0500 (Eastern Standard Time),829293.5,005_o_f_d_a.png,I,m,1988,7,3,3008.7999992370605,826284.7000007629,9002,VNB,B,5
4,test,5,0.0,2-Back,0,m,Fri Jan 17 2025 13:27:43 GMT-0500 (Eastern Standard Time),832326.8999996185,004_o_m_h_a.png,I,None,2014,8,3,3021.699998855591,829305.2000007629,9002,VNB,B,6
4,test,5,1.0,2-Back,0,z,Fri Jan 17 2025 13:27:43 GMT-0500 (Eastern Standard Time),834776.7999992371,011_m_f_d_a.png,I,m,1426,9,3,2438.3999996185303,832338.3999996185,9002,VNB,B,7
5,test,5,0.0,2-Back,1,m,Fri Jan 17 2025 13:27:43 GMT-0500 (Eastern Standard Time),837326.8999996185,016_y_m_n_a.png,I,m,1470,10,3,2539.199998855591,834787.7000007629,9002,VNB,B,8
6,test,5,0.0,2-Back,1,m,Fri Jan 17 2025 13:27:43 GMT-0500 (Eastern Standard Time),840160.1000003815,007_m_m_n_a.png,I,m,1802,11,3,2818.8999996185303,837341.2000007629,9002,VNB,B,9
7,test,5,0.0,2-Back,1,m,Fri Jan 17 2025 13:27:43 GMT-0500 (Eastern Standard Time),842359.7999992371,020_y_f_h_a.png,I,m,1125,12,3,2188.2999992370605,840171.5,9002,VNB,B,10
8,test,5,0.0,2-Back,1,m,Fri Jan 17 2025 13:27:43 GMT-0500 (Eastern Standard Time),844826.7999992371,016_y_m_d_a.png,I,m,1441,13,3,2462.099998474121,842364.7000007629,9002,VNB,B,11
8,test,5,1.0,2-Back,0,z,Fri Jan 17 2025 13:27:43 GMT-0500 (Eastern Standard Time),847460.2999992371,011_m_f_h_a.png,I,m,1566,14,3,2622.8999996185303,844837.3999996185,9002,VNB,B,12
8,test,5,0.0,2-Back,0,m,Fri Jan 17 2025 13:27:43 GMT-0500 (Eastern Standard Time),849810.1000003815,004_o_m_n_a.png,I,z,1266,15,3,2340.300001144409,847469.7999992371,9002,VNB,B,13
9,test,5,0.0,2-Back,1,m,Fri Jan 17 2025 13:27:43 GMT-0500 (Eastern Standard Time),852826.8999996185,007_m_m_d_a.png,I,m,1940,16,3,3004.8999996185303,849822.0,9002,VNB,B,14
10,test,5,0.0,2-Back,1,z,Fri Jan 17 2025 13:27:43 GMT-0500 (Eastern Standard Time),855292.7999992371,005_o_f_n_a.png,I,z,1388,17,3,2453.5,852839.2999992371,9002,VNB,B,15
11,test,5,1.0,2-Back,1,m,Fri Jan 17 2025 13:27:43 GMT-0500 (Eastern Standard Time),857243.7000007629,016_y_m_h_a.png,I,m,923,18,3,1946.400001525879,855297.2999992371,9002,VNB,B,16
